t,ax,ay,az,gx,gy,gz
2.848000000000000114e+02,-1.013476313367542292e-01,1.059479327718457764e-01,9.776556950170210314e+00,1.384539180597951780e-02,-1.233525092653402072e-01,-1.237874761410876934e+00
2.848100000000000023e+02,-4.303314423002782552e-02,-2.339712457624659042e-02,9.760151653116983184e+00,5.164856612996668317e-02,1.826480776855919363e-01,-9.271938842526659952e-02
2.848199999999999932e+02,-3.183511377048545837e-02,-6.016190142263214830e-02,9.787545879991720099e+00,1.017912023839440822e-01,2.159663443871874533e-01,-3.030010970131530312e-01
2.848299999999999841e+02,1.006564637996486822e-01,-5.369138801873851730e-02,9.740919067067940418e+00,9.296333128937595003e-02,1.493083539307471508e-02,-4.917736260749390187e-01
2.848399999999999750e+02,2.357831208792001386e-03,-2.020479657884198810e-01,9.749333023844254598e+00,6.921767761568660415e-02,-2.769792513253710453e-01,-6.134437687756480462e-02
2.848500000000000227e+02,-1.404843120590990035e-01,-7.101259816399145552e-02,1.004671400854050844e+01,-2.034333862052326303e-01,2.311483380725351811e-01,3.355365304916291813e-01
2.848600000000000136e+02,1.206578615941986260e-01,4.219069901214238250e-02,9.747620547644107347e+00,-3.796775301309275596e-02,1.894492490877089097e-01,1.693428195931708305e-02
2.848700000000000045e+02,3.851094265085037299e-02,-5.204115803529147342e-04,9.846191275193685755e+00,-2.192457778975256399e-01,-1.555586505380304185e-01,-6.805447033275513480e-01
2.848799999999999955e+02,2.809151756544447931e-02,4.692419557277826420e-02,9.716721810452197516e+00,1.981526849230818288e-01,-1.927348891883260903e-02,-8.033504522164326700e-02
2.848899999999999864e+02,8.735254743531206678e-02,1.326198886113689190e-01,9.630650027418667491e+00,-8.212575775446497028e-02,3.910974020748243518e-01,-3.515997943993638963e-01
2.848999999999999773e+02,-2.160489739341634602e-03,2.388205896928932148e-01,9.734582039545525589e+00,2.154484986355830606e-02,-1.265764670334482145e-01,-5.730084449173914463e-01
2.849100000000000250e+02,-5.364034910230189301e-02,-2.723162723760930853e-02,9.802952003788506730e+00,-2.156038781248058311e-02,-1.848856652974933401e-01,4.380328933703637739e-01
2.849200000000000159e+02,3.465730677923189312e-02,-1.138181831552550066e-01,9.735377038258475224e+00,-1.068127584647094452e-01,-6.692467484935486766e-02,-5.829303592378706940e-03
2.849300000000000068e+02,6.229286263720306555e-02,-4.387368477204097589e-02,9.643217906021011032e+00,-3.498847753589258425e-02,1.614963093131826788e-01,-2.002215593578642316e-01
2.849399999999999977e+02,3.814269129682902604e-02,7.722717509879187259e-02,9.765080025863642987e+00,-2.368525555531103000e-01,-4.035919867803581251e-01,3.906320602853531332e-01
2.849499999999999886e+02,8.110194658253494504e-02,2.466958819423778204e-01,9.814628920276943447e+00,-1.108172505627242482e-01,3.435337753603722594e-02,7.063155491360627591e-01
2.849599999999999795e+02,1.004523093132376338e-02,1.613191455271959993e-02,9.880016114728862320e+00,-2.909990366827720776e-02,-1.240967987162666097e-01,7.991209518580438126e-03
2.849700000000000273e+02,-9.955875029247701624e-02,4.786152038059815483e-02,9.801210201217559259e+00,1.022716192914744637e-01,1.172117420183926700e-01,1.101022171230340518e+00
2.849800000000000182e+02,-6.291748093683088849e-02,-2.291632707509527744e-02,9.729379307792607179e+00,-1.772808476483211937e-01,-3.696371973242015829e-02,5.017669268212993083e-01
2.849900000000000091e+02,1.372607303404878853e-01,1.538435887857025376e-02,9.923246590600520278e+00,3.036923327490145819e-01,2.510319028011957498e-01,3.819561805945958510e-01
2.850000000000000000e+02,3.273225154599514880e-03,1.241981165670330428e-01,9.999623804182554920e+00,-3.029126132387183201e-01,1.575233504124987638e-01,3.784595379700438165e-03
2.850099999999999909e+02,-1.127502757982515452e-01,8.080119303278993081e-02,9.835051544872849050e+00,2.228237209540673003e-01,-2.263370554224126974e-02,1.059150380721079199e-01
2.850199999999999818e+02,-1.221854828604977822e-01,-5.724340324531645118e-03,9.952363250703445630e+00,-2.145209861357879333e-01,1.553506867274568881e-01,-5.480705990439047604e-01
2.850299999999999727e+02,-1.338954457154247490e-01,2.524659291827641150e-02,9.881423183547463296e+00,-2.786030746211308751e-01,-1.441172056714591088e-01,-6.118881545585848070e-01
2.850400000000000205e+02,8.238537065610423982e-02,-3.680578101296781007e-02,1.000306147639712151e+01,-1.252095104624718069e-01,-1.696781098926361808e-01,2.341538131676900447e-01
2.850500000000000114e+02,3.097623524048434204e-02,1.189506939596576135e-01,9.824032997881610996e+00,1.225547649942568262e-01,1.819356284085792141e-01,9.061182906946392279e-01
2.850600000000000023e+02,1.844733232375572463e-01,1.857300792828784353e-01,9.898331058074594679e+00,-3.589306195136087174e-01,-4.026892705272160089e-02,-3.016701271900216752e-01
2.850699999999999932e+02,5.761442774610127382e-02,-8.695005880339751192e-02,9.944257559878305841e+00,-1.147316598086548373e-01,1.789073832395880748e-01,-1.083901845494268157e+00
2.850799999999999841e+02,6.362920305645317076e-02,-7.914822893532449943e-02,9.815979075409732246e+00,4.330428369942136008e-02,-2.954642891151952333e-01,-3.007723134461213199e-01
2.850899999999999750e+02,1.989845009566584000e-01,-3.583724688671421216e-02,9.882434590953025122e+00,-7.957084996117663733e-02,-3.101560442800989637e-01,6.849961787769112687e-02
2.851000000000000227e+02,-9.687919342053573357e-02,8.561862727409501328e-02,9.819662587290459044e+00,-6.455252233264610617e-02,-3.486053269757004996e-02,-1.211647275772132826e+00
2.851100000000000136e+02,-1.500223062531567397e-01,-4.268011053159953549e-02,9.744307909602079931e+00,9.704460853999154202e-02,-1.063962274374694456e-01,-5.487548586749368962e-01
2.851200000000000045e+02,5.528898985721978493e-02,9.387251099869910187e-02,9.670461781669672519e+00,1.752110796937045023e-01,-3.774661001232787472e-02,6.002429730302946131e-01
2.851299999999999955e+02,-2.440622101477170694e-02,-1.568582090869955481e-01,9.932162099709961112e+00,-5.702013119950698899e-02,6.880596754809119309e-02,-3.176941682817093771e-01
2.851399999999999864e+02,2.975389380239708628e-02,-7.350523953928645576e-03,9.965333678393774264e+00,6.844516215283040494e-02,2.019388520340429372e-01,2.026921874818739533e-01
2.851499999999999773e+02,1.224763579062635444e-01,1.333074643495483005e-02,9.794366678582532515e+00,1.225032771388191999e-01,-1.454670123268963777e-01,4.746066785171944996e-02
2.851600000000000250e+02,7.615587321176131574e-02,-9.332652054373130612e-02,9.727367881641534098e+00,-2.412022857837601009e-01,1.562173719125064253e-01,-4.472334284463672649e-01
2.851700000000000159e+02,1.516521822367803418e-01,-1.406378912489156252e-02,9.866091176926293116e+00,-2.115567828224514113e-02,-1.888250462870487700e-01,-6.480247791113981082e-01
2.851800000000000068e+02,-9.080798884193191922e-02,1.109860038305459373e-01,9.850692194356479803e+00,-3.367163788518793832e-01,-3.900454698060301650e-01,-4.092228942443369988e-01
2.851899999999999977e+02,8.973727018489691121e-02,-1.413394223453823609e-02,9.659058524995051798e+00,2.802260400837319754e-01,-6.142194149720271723e-02,-1.729829315909744286e-02
2.851999999999999886e+02,-7.725013969171382056e-02,4.178968541983865692e-02,9.952341413289653715e+00,1.881969324435174007e-01,2.721377862508487233e-01,-3.010843176436228674e-01
2.852099999999999795e+02,1.668934256131755778e-01,1.419319553525672795e-01,9.747700514058436738e+00,-1.035001123440279502e-01,-1.016291855425696666e-01,-1.460885678554208200e-01
2.852200000000000273e+02,4.481222517902248154e-02,-9.105440265110925635e-02,9.780133774195322260e+00,5.658284784349498775e-02,5.772468780701964924e-02,1.913174453280118703e-01
2.852300000000000182e+02,5.068765781250394314e-02,2.592100760090321199e-02,9.741722668543030039e+00,-5.310652197350221870e-01,-7.713591852729431708e-02,-4.349140956329141661e-01
2.852400000000000091e+02,-5.820050958852023698e-02,-2.846194231635494343e-01,9.707993258639293188e+00,3.348963509574134356e-01,1.780011777243720728e-01,-1.222462567032417680e-01
2.852500000000000000e+02,-5.313748066309494089e-02,-1.391297543898900868e-01,9.615298020964059944e+00,-1.378545209069570454e-01,-1.517562678036427637e-01,6.343415398437082797e-02
2.852599999999999909e+02,4.052852402309167074e-02,7.482714630277517709e-02,9.826406179317451972e+00,1.272061237439522374e-01,-1.012288256932336455e-01,2.128356106660069802e-01
2.852699999999999818e+02,1.748264230011281339e-01,-5.327423618767097857e-02,9.696091290856122313e+00,-2.285354985414655982e-01,2.320666385565995152e-02,-4.878478700237321442e-01
2.852799999999999727e+02,1.582384028391577713e-01,2.885572558588161626e-02,9.873740399862569461e+00,3.189351851015256867e-01,-8.543749939240946611e-02,5.782267474086391079e-01
2.852900000000000205e+02,3.584801039111591703e-02,-1.511186395793752690e-01,9.808131515724234362e+00,2.095722543675974242e-02,-3.594329651692907968e-01,-4.795624857837680333e-01
2.853000000000000114e+02,-4.213021763850759160e-02,-2.708415141183824204e-01,9.797319464499635089e+00,-4.513981868623960780e-01,-1.842080892167015094e-01,-7.192320449377973546e-01
2.853100000000000023e+02,5.729091416932594744e-02,-7.029289840732164119e-02,9.782321869321590313e+00,7.302987469026010758e-02,-4.675385240379380941e-02,9.292441465518620491e-01
2.853199999999999932e+02,1.254463683591671985e-01,-5.756699498630801770e-02,9.860635115504127413e+00,7.960998591021945306e-03,2.377508305269247432e-02,-7.555031797925590986e-01
2.853299999999999841e+02,2.117992004414931406e-02,-3.538987861268078766e-02,9.820581081386540845e+00,-2.038444212373269060e-01,2.358463943333205526e-01,-3.898393607154449492e-01
2.853399999999999750e+02,-3.872809888582305626e-02,1.467316127003938653e-01,9.941144326839850720e+00,1.280488386642129051e-01,-4.855164573154292090e-02,-4.297120008458423790e-01
2.853500000000000227e+02,6.791273336702231822e-02,-2.050647366536251792e-01,9.728289509275921176e+00,-6.039416823067167428e-02,-1.475402038933451010e-01,1.799353395902648645e-01
2.853600000000000136e+02,-2.396816123317646943e-02,-7.306435736390458346e-02,1.001284333864727039e+01,1.523195859569849431e-01,2.606740905624282956e-01,1.094098977772924863e-01
2.853700000000000045e+02,-3.551096540513207916e-02,-3.663451255019876951e-02,9.967272744731026535e+00,-1.283139348615781883e-01,-1.239376577833723597e-01,-2.740635273710175998e-02
2.853799999999999955e+02,-5.614178928662836784e-03,-1.423398447717350371e-02,9.926516053084670332e+00,-6.122947718849029025e-02,1.410551624207558308e-01,-4.396893522045377534e-01
2.853899999999999864e+02,6.666030957228817611e-02,9.918354908096516098e-02,9.786502969203885627e+00,-4.417375347083896640e-03,-1.632995158063124119e-01,-1.315965473352936232e+00
2.853999999999999773e+02,-2.225328826676866226e-02,-5.971268521543882796e-03,9.899051598497024429e+00,7.560362290896198434e-02,3.452334099621151009e-01,1.305098781555511511e+00
2.854100000000000250e+02,-3.721385637361559594e-03,7.958938762875528150e-02,9.866647860467290698e+00,-4.216862712732017543e-02,1.822821712387889814e-02,-8.043342741408423535e-01
2.854200000000000159e+02,1.434578610828004391e-02,1.187164877468791374e-01,9.738119434519466822e+00,1.545667186923915803e-01,2.525636317263170727e-01,7.169137154159275216e-01
2.854300000000000068e+02,-3.818140333690551308e-02,-1.390808586593181018e-01,9.726794091445507107e+00,-3.389494379656674550e-01,-1.186542505634659642e-02,-3.017293865659139707e-01
2.854399999999999977e+02,1.549554397030649400e-01,1.126228369495611975e-01,9.794684332625623213e+00,3.622046703182476013e-01,-7.285037901456614673e-02,-1.707683465538099021e-01
2.854499999999999886e+02,1.842910963016902159e-01,-1.957855794214708595e-02,9.645037672434659370e+00,1.825188277092960609e-01,-6.811242317147638003e-02,-6.208731983474364835e-01
2.854599999999999795e+02,-3.028072378232203946e-02,4.740688333162015183e-03,9.738679724820812567e+00,1.679584931172312667e-01,-2.560003349945598194e-01,4.314754958201813539e-02
2.854700000000000273e+02,-7.976070461504208842e-02,1.464868290403067985e-02,9.767245762961506372e+00,2.483788282275820047e-02,-1.405634052331389827e-01,4.281611320508227903e-01
2.854800000000000182e+02,-4.639917235208936702e-02,4.165215209256797890e-02,9.847499702064940408e+00,-1.474358801173180911e-01,2.534128212354420234e-02,-3.697322878121501732e-01
2.854900000000000091e+02,4.458215778764862414e-02,-1.476407549002251851e-01,9.844558959115859764e+00,1.646792999205971553e-01,-1.845116303951011838e-01,7.044456338751725610e-01
2.855000000000000000e+02,-8.600093003257333266e-03,-1.564979665310427814e-01,9.639264322210019387e+00,1.157354515441667009e-01,2.228887014746970194e-02,-5.598389685927741555e-01
2.855099999999999909e+02,-1.278805197052719222e-01,-5.113296925699115092e-02,9.959054779086171649e+00,-8.738397293769539775e-02,2.188657129625951742e-02,2.870644317840377879e-01
2.855199999999999818e+02,-1.558146396148737782e-02,6.081995500963228996e-02,9.677126544094980076e+00,-3.122558689357437731e-02,-2.238907572755898662e-02,-5.703649892492347329e-01
2.855299999999999727e+02,4.070595423826649933e-02,1.284133447882910561e-01,9.645364811936989469e+00,-3.702257138520967383e-02,1.189461468039592074e-01,-1.639776507431742469e-01
2.855400000000000205e+02,9.846383089277487011e-02,-6.810967176034836423e-02,9.876602107237481221e+00,-1.809643301616046807e-01,1.145228821676018277e-01,-5.941003583573989388e-01
2.855500000000000114e+02,1.756910916409380741e-01,8.571844890060414945e-02,9.926405286851407439e+00,1.151093861067984947e-01,1.728357727330667448e-01,-2.114229077648546451e-01
2.855600000000000023e+02,-4.480891389268773506e-02,-2.136312982727643986e-02,9.819569719893593174e+00,-6.644943960951431305e-02,3.886853728557491255e-02,-4.840787039252012480e-01
2.855699999999999932e+02,-6.234299302954925820e-02,3.302216496422619163e-02,9.859273391145753962e+00,7.870983424479764679e-02,1.460413687927203941e-01,-6.048301130390351110e-01
2.855799999999999841e+02,-2.505402596943593491e-02,-6.008245914068134630e-02,9.881991138065581382e+00,3.686905808442680899e-02,1.046953044622350587e-01,3.606233000309139736e-01
2.855899999999999750e+02,-9.455559349257652846e-02,1.382007562449725016e-02,9.813393232931572285e+00,-3.514496859507953985e-01,-1.021181639648518769e-01,3.890443504722234103e-01
