t,ax,ay,az,gx,gy,gz
1.680000000000000000e+02,-2.010274267598311515e-01,-7.155813993396906159e-02,9.736285203922234288e+00,4.219023566411250759e-02,4.181532947654409416e-02,-1.479191465785761750e+01
1.680099999999999909e+02,7.477684662155416502e-03,-2.018687848560900555e-01,9.839796477539264785e+00,-1.666098721637344071e-01,-2.990293541279236411e-01,-1.542446960588677385e+01
1.680200000000000102e+02,-3.825774540460086942e-02,-1.378958774548117994e-01,9.784575916475812818e+00,2.467126291839732977e-01,3.728363182475617488e-01,-1.510101570550036065e+01
1.680300000000000011e+02,-1.706879567607369752e-01,6.821924646615934451e-03,9.874928041311163085e+00,4.074630328244355226e-02,-3.099775310394324856e-01,-1.548456750844687768e+01
1.680399999999999920e+02,5.641996880589300600e-02,-1.763524484919187230e-01,9.985019036916513713e+00,-1.805494604588226693e-01,-3.067873825998966575e-02,-1.569903952852646789e+01
1.680500000000000114e+02,3.112916502664342042e-02,-1.537336187297329293e-01,9.741352828802851249e+00,2.126256049525434080e-03,-2.436377605107487021e-01,-1.528359490586372793e+01
1.680600000000000023e+02,1.649292487863840070e-02,-1.523956389151943092e-01,1.004504475272607422e+01,9.092361362651868797e-03,-1.515832989029975986e-01,-1.366830629754669069e+01
1.680699999999999932e+02,6.104853015107121472e-02,-1.770624911735244056e-01,9.706535582135643381e+00,9.044141307612284242e-02,-3.333852567800990041e-01,-1.457071943339166253e+01
1.680800000000000125e+02,3.212499236908217953e-02,-3.785110026901156166e-02,9.616417163680244684e+00,-9.811422154790533368e-02,2.692264528886691433e-01,-1.490563488555176264e+01
1.680900000000000034e+02,-7.378983351183096562e-02,-2.108778922582355553e-01,9.787582944652198691e+00,2.977809348725521041e-02,1.478147096527548110e-01,-1.448836274196409768e+01
1.680999999999999943e+02,7.229828113771895326e-02,-5.867239048506674159e-02,9.626045687269492390e+00,-2.040307589559470502e-01,1.681075979360043271e-01,-1.394193135955738505e+01
1.681100000000000136e+02,8.942375132116675562e-02,-8.971605011860842027e-02,9.752338705423985843e+00,-2.017094318559913835e-01,-5.375812801079121739e-02,-1.554171616466664219e+01
1.681200000000000045e+02,-1.085807413506534314e-01,-1.727443874779600874e-01,9.670006067396316851e+00,4.318427194576470590e-02,1.299710605367873639e-01,-1.553946674822110730e+01
1.681299999999999955e+02,8.805145741964781614e-02,-2.077725618080223935e-01,9.785831014624035262e+00,-2.829153013878869527e-01,-1.496752937219618940e-01,-1.541645524187768324e+01
1.681399999999999864e+02,-2.835398780749200445e-02,-1.699370568690357908e-01,9.825699497024055873e+00,-6.435588396054328642e-02,3.158928818911423964e-01,-1.479687559435142319e+01
1.681500000000000057e+02,6.128210444429151027e-02,-5.074509992997140728e-02,9.775301981894184422e+00,4.837448406317703675e-01,1.790966163638616215e-01,-1.461813310658270559e+01
1.681599999999999966e+02,1.519518779436350268e-02,-5.897861459905218151e-02,9.824633397583845351e+00,1.718024133699466438e-01,2.821721401128358675e-01,-1.495902269147766717e+01
1.681699999999999875e+02,-1.720240470147389386e-02,-8.667057729988132675e-02,9.793015582351857873e+00,1.734375685185055305e-01,4.166966074586119229e-01,-1.481437496848488777e+01
1.681800000000000068e+02,5.392101339846194774e-02,-1.753094272792479202e-01,9.678406066176862055e+00,3.713092029596041788e-01,-1.740611468819920349e-01,-1.533324282038264741e+01
1.681899999999999977e+02,-3.331343301579210714e-02,-1.623096059381477219e-01,9.738681336349705120e+00,-1.386404062221766598e-01,-1.880484837387973451e-01,-1.486168399616348701e+01
1.681999999999999886e+02,1.080292758121441932e-01,-1.040344892978086744e-01,9.699842353906547032e+00,5.641429519058336478e-02,-1.977186383204518338e-01,-1.467746655073613837e+01
1.682100000000000080e+02,1.244731167430424001e-01,-1.903519787710095112e-01,9.781635180927713336e+00,2.092324025369854956e-01,7.484062190555218486e-02,-1.640661335902966655e+01
1.682199999999999989e+02,-5.470738565215974708e-02,-8.290838786515274117e-02,9.783976992047287879e+00,-3.422183926047874802e-01,-1.251373286572928789e-01,-1.571898151863074844e+01
1.682299999999999898e+02,-1.672279693489270302e-02,-1.514943333312324114e-01,9.837253582679529984e+00,1.887666413937320528e-02,-1.645794547782661876e-01,-1.593568240908355982e+01
1.682400000000000091e+02,-3.741446410079084933e-02,-6.527025887034969276e-02,9.684898659121099485e+00,-1.118895842151419323e-01,3.930183869504128014e-02,-1.436060703596152166e+01
1.682500000000000000e+02,3.752552567439570302e-02,-3.081070172373259197e-01,9.807713781786111085e+00,9.888870313111806920e-02,-2.236634347884291218e-01,-1.454391072443820931e+01
1.682599999999999909e+02,1.310056215373172905e-01,-2.273830644733375872e-01,9.730559116857586233e+00,-6.140462997791790167e-02,2.397997733772470608e-01,-1.416804415600848799e+01
1.682700000000000102e+02,-1.667568975948268972e-01,-1.999629804778629005e-01,9.820808749446980457e+00,2.986645847818856225e-01,-6.009347939529487981e-01,-1.431323732040130281e+01
1.682800000000000011e+02,-1.418302908173856569e-01,-1.254149732636092862e-01,9.786117832537232886e+00,-1.434394941022878456e-01,-1.747748553256779080e-01,-1.503682287861247779e+01
1.682899999999999920e+02,-8.352567618569601768e-03,-2.042505559960062500e-01,9.897345452441530966e+00,1.978858993377222986e-01,-9.195906511767942826e-02,-1.520968424274711595e+01
1.683000000000000114e+02,1.859302950571660798e-02,5.135191115553361385e-02,9.790902839271943492e+00,2.469956000005495145e-01,1.600009896972159895e-01,-1.560399516490439886e+01
1.683100000000000023e+02,-9.412931361365815819e-02,-2.885371285678188791e-01,9.534291451591844435e+00,-3.336913477909052989e-02,-7.820024525328735099e-02,-1.589611806285210172e+01
1.683199999999999932e+02,1.807402153283408849e-02,-6.470011197321376417e-02,9.837614091281160711e+00,-1.997670412596733447e-01,7.008679057920621513e-01,-1.477644041399155128e+01
1.683300000000000125e+02,-7.409566670561634760e-02,-4.364872173999342908e-02,9.660237878132193146e+00,-3.446890593179753881e-01,1.314806354472011496e-01,-1.494701479504072239e+01
1.683400000000000034e+02,-4.467774296361395198e-02,-1.168385668253187348e-01,9.877528651796094294e+00,3.765907698506247847e-01,-8.283730359165829282e-02,-1.586020906466927727e+01
1.683499999999999943e+02,1.269629220583404494e-01,-1.982231917471118099e-01,9.759751273293126417e+00,1.996985355039735677e-01,3.097917902084908540e-02,-1.494339603758159818e+01
1.683600000000000136e+02,-3.431331130596998458e-02,-1.685848369941396196e-01,9.800863588202517462e+00,8.695866940983058846e-02,-8.224608757828288930e-02,-1.525527410519528537e+01
1.683700000000000045e+02,-3.607248199586138293e-02,-8.496075418385337641e-02,9.940026799837728078e+00,-2.420298073290873819e-01,-5.547335941464474202e-02,-1.542604407118611221e+01
1.683799999999999955e+02,1.317618760003899658e-02,-3.265237201962489788e-01,9.832118847561472919e+00,2.934650653019184041e-01,1.336603462524001140e-01,-1.521309690563337291e+01
1.683899999999999864e+02,1.092290702024733551e-01,-2.300967019249155476e-01,9.811427282922680959e+00,-1.854096717958984494e-02,2.305359685479793641e-01,-1.487705660591206858e+01
1.684000000000000057e+02,-4.302232296425917250e-03,-2.204250919392472530e-01,9.844819233411907788e+00,-1.721406751126960087e-03,-3.031411154359767712e-01,-1.419952043051132939e+01
1.684099999999999966e+02,-5.582410564333905451e-02,-1.122047347346024904e-01,9.691374511091336075e+00,4.360675037499073814e-01,-2.347403412196961969e-01,-1.560307113230472176e+01
1.684199999999999875e+02,5.791253871425066507e-02,-5.776853639171668220e-02,9.928801287478803417e+00,5.806256673886950326e-02,5.712939511268601278e-02,-1.589478672288002237e+01
1.684300000000000068e+02,8.127356647019062796e-02,3.143157744594909930e-02,9.759842894211280040e+00,2.083030894301132196e-01,3.574888788557625818e-02,-1.516328158388607328e+01
1.684399999999999977e+02,1.144661459599616293e-01,-3.530948465622767429e-01,9.806616882624023646e+00,-2.784556463885178856e-01,3.906880907475163145e-02,-1.498117892335995727e+01
1.684499999999999886e+02,-3.566265362183540857e-03,-2.694429357950836046e-01,9.783255208022769267e+00,-2.852340371732456012e-02,1.575994009082644365e-01,-1.510636901335285565e+01
1.684600000000000080e+02,4.751751568940868614e-02,-2.008797962462489095e-01,9.668854199908679448e+00,-9.067420821569609213e-02,1.283960288161452856e-01,-1.596007669557255682e+01
1.684699999999999989e+02,7.903916101860035404e-02,-1.110537051005727471e-01,9.611525116081935494e+00,-7.581813812085977378e-02,2.726163318489208676e-01,-1.525198854423365447e+01
1.684799999999999898e+02,1.818629132550230940e-02,-9.022567470698454606e-02,9.787166944886308784e+00,1.639115485490441615e-02,2.213588924875464492e-01,-1.549907277182949628e+01
1.684900000000000091e+02,1.319441335671155680e-01,-2.845467545828905820e-01,9.903565407374150809e+00,8.467083578214071315e-02,2.327934687343148623e-02,-1.520898607856534213e+01
1.685000000000000000e+02,6.513841605059240980e-02,-1.290293076103096459e-01,9.863698885205828049e+00,1.941831374137382993e-02,8.241375293372639466e-02,-1.430022563106682476e+01
1.685099999999999909e+02,1.882865749640368902e-01,-4.226542093851426429e-01,9.929961220184692294e+00,-2.410294859983001109e-02,5.435967283229581337e-02,-1.522816247671069867e+01
1.685200000000000102e+02,9.177105245602530659e-02,-1.374744915103055798e-01,1.000461810712704391e+01,-6.327219271453672633e-02,3.336808299180513832e-02,-1.538663478752820524e+01
1.685300000000000011e+02,-1.926709596580942763e-01,-1.692804085372436873e-01,9.797607774337723896e+00,1.801027065008926065e-01,7.511205592016248489e-02,-1.452609223564119389e+01
1.685399999999999920e+02,-3.983721370777376647e-02,-1.766308423790618753e-01,9.757553779658856286e+00,2.017716688886607990e-01,3.233745401218420662e-02,-1.546560992157773207e+01
1.685500000000000114e+02,-1.617845149756886869e-01,-2.058503329623933009e-01,9.770279126087904942e+00,-7.964348885335176265e-02,-1.455958822181608985e-02,-1.566039417981830617e+01
1.685600000000000023e+02,-6.388206348223145203e-02,-1.756348207466196243e-01,9.800769329241335370e+00,4.592276135077784094e-01,1.521048606303025408e-01,-1.509681436513429986e+01
1.685699999999999932e+02,-3.713621293318905559e-02,-1.345053807807063961e-01,9.849755160994412506e+00,-5.580011086775074070e-01,-2.047748762448392823e-01,-1.479207758786720994e+01
1.685800000000000125e+02,8.687260250438161302e-02,-5.973192272981375783e-04,9.702482812682751145e+00,1.011527188492527540e-01,-2.446089467709280374e-01,-1.518324931906421860e+01
1.685900000000000034e+02,-4.396558551334833753e-02,-2.951915594642491314e-01,9.720061603143136608e+00,-3.407585261466642423e-01,4.858251477116040107e-01,-1.490161335981245294e+01
1.685999999999999943e+02,1.394208254614890119e-01,-1.939543991054001049e-01,9.787854813590270098e+00,2.028790371036083284e-01,6.392834715034112492e-02,-1.555056281050914890e+01
1.686100000000000136e+02,-6.685311764253547284e-02,-1.125808222612724313e-01,9.897851681330195106e+00,3.614881232016988188e-01,6.735614173670173566e-02,-1.399560564465478585e+01
1.686200000000000045e+02,-2.884782028839011012e-02,-1.726976164541073333e-01,9.799670810315419089e+00,1.217191600610389862e-01,3.321855776540205002e-02,-1.498149535954551403e+01
1.686299999999999955e+02,-1.239710199970348870e-01,-1.542517170134249938e-01,9.905172888124251784e+00,3.762094156879114970e-01,1.743840211792732076e-01,-1.477042231773979886e+01
1.686399999999999864e+02,1.444548075479422378e-01,-2.253286162647708535e-01,9.833643058507327339e+00,5.098242074859158507e-02,-1.209125558272902516e-02,-1.391053862327321156e+01
1.686500000000000057e+02,1.578336695338701523e-01,-8.412963782945070967e-02,9.795453071969983938e+00,3.343129670604177428e-01,3.202719250148328145e-01,-1.509020666625864138e+01
1.686599999999999966e+02,-1.321248751141642502e-02,-3.839023511366523866e-01,9.836110852606063659e+00,-1.166044881779073616e-01,-1.911022240552875673e-01,-1.505036921427327101e+01
1.686699999999999875e+02,-1.480665778696691193e-01,-2.659351787736087269e-01,9.804743246242837884e+00,-1.150701144094133377e-01,-3.570645495948873149e-01,-1.456652894024856515e+01
1.686800000000000068e+02,-2.081871437812149450e-02,2.887977779488268282e-02,9.790741277417604138e+00,2.457701603289503406e-02,1.047425149499203734e-01,-1.442601342817033938e+01
1.686899999999999977e+02,2.321547681635335869e-02,-2.895524151495337817e-01,9.926974031077074656e+00,4.373422458157001369e-01,-7.751101738825973142e-02,-1.602112975150116014e+01
1.686999999999999886e+02,-6.348623766415849301e-02,-2.538706620236832467e-01,9.913182998246062638e+00,1.850473409069582631e-01,-3.649144923151920183e-01,-1.528790880791710016e+01
1.687100000000000080e+02,2.350852026234625525e-01,-2.454335978367103432e-01,9.797088891819152323e+00,-3.889551952752200448e-01,-1.970278861777217116e-01,-1.498529440001868451e+01
1.687199999999999989e+02,1.825341465630610782e-01,-2.207795387463601933e-01,9.786076300080202017e+00,2.144890445084763897e-01,9.830552676180170923e-02,-1.535958713471677406e+01
1.687299999999999898e+02,-1.748821239478746958e-01,-1.685965025858738864e-01,9.928656817562924175e+00,2.458124581235604789e-01,-1.562163792634520265e-02,-1.452697509752231397e+01
1.687400000000000091e+02,-1.153803693235907341e-01,-5.876754294324859629e-02,9.791046648960376686e+00,-1.915545863962896944e-01,2.630584859377836926e-01,-1.478070682494164600e+01
1.687500000000000000e+02,4.587228452020665481e-02,-1.189243496977166192e-01,9.879488936652641939e+00,1.226810397201920921e-01,-1.053723051069420241e-01,-1.525155562854025248e+01
1.687599999999999909e+02,-1.071878360072729824e-01,-1.902769614826300693e-01,9.890115035232717844e+00,6.689334611426735189e-02,-1.668841986497021646e-01,-1.518966742264250769e+01
1.687700000000000102e+02,1.829051594582536619e-02,8.245798142067495284e-03,9.917721583143190855e+00,-8.809396913351036362e-02,3.491827943112923993e-01,-1.466930282631598459e+01
1.687800000000000011e+02,1.070432671624694512e-03,-2.083895475579773948e-01,9.923581902248349351e+00,-6.639204862706978016e-02,-1.237756889891347134e-01,-1.497581070663511404e+01
1.687899999999999920e+02,-3.956782579795157899e-03,-1.609086217560084520e-01,9.801746343179399190e+00,-3.724907367612291242e-01,-9.897883535737421468e-02,-1.523887411131367031e+01
