t,ax,ay,az,gx,gy,gz
2.455999999999999943e+02,1.136657876134260781e-01,4.745388710150583861e-02,9.716206652118364318e+00,-1.455038052725564912e-01,2.498069554763552788e-02,-7.941740855120072995e-01
2.456100000000000136e+02,-2.381099915657199917e-01,7.006144470335118335e-02,9.641671247050958016e+00,-4.490185158442228791e-02,1.373669420807546171e-01,2.170250394096956692e-01
2.456200000000000045e+02,-4.519366932649260954e-02,1.799729208027529281e-01,9.701449960550737828e+00,1.534050123935992715e-01,-7.063976860810398939e-02,6.837391385809423738e-01
2.456299999999999955e+02,-1.064592670442563310e-01,-5.334379100164842596e-02,9.802634962590779821e+00,8.329752234735421368e-02,-3.608222951975229020e-02,-5.893851293944659675e-01
2.456399999999999864e+02,1.246911928243176482e-01,3.405326572568829341e-02,9.724349015877253422e+00,1.065216147770000482e-01,1.409234511624816444e-01,-2.476052923558748897e-01
2.456500000000000057e+02,1.073474635218930190e-01,1.502815522347051569e-01,9.839792213388546926e+00,3.683057013994955886e-01,5.892005970464542566e-03,5.515495315117385777e-01
2.456599999999999966e+02,5.643733436302048045e-02,-9.230306014921038638e-02,9.882118444146714253e+00,-2.241852055774352648e-01,-1.243617799316478617e-01,-1.066198502049503505e-01
2.456699999999999875e+02,1.915626305174644994e-01,-1.318352677047629311e-02,9.847877765765048252e+00,2.859607028523528799e-02,4.554764532909491570e-02,4.094184042006290269e-01
2.456800000000000068e+02,1.001198381850740282e-03,8.635169889508453878e-02,1.000603021509483170e+01,-1.095378354020435235e-01,2.478939808974555126e-01,7.476541113830973417e-01
2.456899999999999977e+02,6.312579199072178293e-02,-1.231905083136873441e-01,9.784006844539295145e+00,-9.474737185902881720e-02,-4.176856210234982658e-01,2.248838723792472016e-01
2.456999999999999886e+02,-1.597587969366291993e-01,2.301504034732013843e-02,9.934475120881389287e+00,1.525078678237292706e-01,3.272687564768349960e-02,-2.236265128455529605e-01
2.457100000000000080e+02,-3.201319621112302255e-02,-2.877083066683813403e-02,9.940048655793468413e+00,-4.897738100303090647e-01,-2.146234958248929015e-01,3.523351544693088533e-01
2.457199999999999989e+02,1.100440589073237337e-02,-9.067193287551289504e-02,9.667573697612494854e+00,-3.665098125473444934e-01,-7.142236115756535331e-02,8.108725041346138696e-01
2.457299999999999898e+02,-9.167124957525611684e-02,1.203232781926264483e-01,9.854875470450746633e+00,2.399848574761344420e-03,2.349015561414911635e-01,6.010369156656240192e-02
2.457400000000000091e+02,2.555224367955002962e-02,9.184706789347500677e-02,9.978864065825895580e+00,8.104209198635439759e-02,1.340068474510840157e-01,5.064335632347145566e-01
2.457500000000000000e+02,-1.968739070504476052e-01,5.343679615275961914e-02,9.764881573502504963e+00,-2.526886063585813136e-01,1.611047322429692008e-01,1.731992032385374913e-01
2.457599999999999909e+02,5.001316508223496021e-02,7.075109945566757097e-02,9.710964050613826615e+00,-1.299761629213429248e-01,1.235904200998994562e-01,8.907615642495445019e-02
2.457700000000000102e+02,-4.346275220145997403e-02,-3.998904770521524710e-02,9.850619634314368156e+00,-5.507129270120502545e-02,1.844971943997534558e-01,-7.354870199808913322e-02
2.457800000000000011e+02,-7.873490867805058024e-02,5.354561290301417323e-03,9.831369921693312364e+00,2.661138570557723959e-01,-3.075038564273942232e-02,1.778457715127793326e-01
2.457899999999999920e+02,7.433652305059328114e-02,-8.214565753613670140e-02,1.006188539778077029e+01,8.867147690905285984e-02,4.336287815231404941e-01,2.885031064245672031e-02
2.458000000000000114e+02,1.463838168728734679e-01,7.731115455178982909e-02,9.926069625315909306e+00,-3.255267487555213446e-02,-1.199334582131779403e-01,8.329365531398509603e-02
2.458100000000000023e+02,8.918124316946901553e-02,-9.045678538969674498e-02,9.872855892461243954e+00,-8.688284007566740574e-02,-2.272049232643168493e-01,-2.568331083836710160e-01
2.458199999999999932e+02,-8.114370827653712148e-02,-4.987438850037243659e-02,9.718442495088586597e+00,1.217800405035199401e-01,1.632758009767643903e-01,-8.030791116775222171e-01
2.458300000000000125e+02,6.681546299723155335e-02,-1.022784447102821903e-01,9.638115937925913812e+00,-1.905180727701491217e-01,-1.824328081947451108e-01,5.846268647819845565e-01
2.458400000000000034e+02,-2.559517925866670179e-02,2.168573592431966013e-02,9.946667136090344030e+00,-1.723943437421595823e-02,-4.506649479563997196e-01,-7.580722311822617465e-01
2.458499999999999943e+02,1.129432317813106046e-01,-2.590584243260973460e-02,9.855714651760109746e+00,2.059637571598698508e-02,-4.289971046789729098e-02,-4.689583120750804857e-01
2.458600000000000136e+02,2.211164560133940110e-02,4.025265169285852790e-02,9.801877631560170556e+00,-3.664952112392264039e-02,1.533864375933632063e-01,-5.172031495814414237e-01
2.458700000000000045e+02,-1.474577055435485062e-01,-6.633120551906422635e-02,9.811956888454007597e+00,7.174556101538422104e-02,2.856360399914897874e-01,-3.451955955814897115e-01
2.458799999999999955e+02,-2.420568387108733982e-02,-7.549963062514399026e-02,9.876913353511252325e+00,-1.260690740686641331e-01,-7.270996115959055262e-02,8.630940784492978635e-01
2.458899999999999864e+02,-8.252802496151084855e-02,4.374838338804490356e-02,9.740649685551389325e+00,2.430037874130853148e-01,4.486695397398326665e-03,4.251189831901540650e-01
2.459000000000000057e+02,-7.772210495467506142e-02,-1.342518546123200318e-02,9.554307516830631286e+00,2.838338903877115627e-01,5.775231544364722164e-02,-1.203057034561914457e-01
2.459099999999999966e+02,-3.249327343519441830e-02,2.841520022656446876e-01,9.737968205197464755e+00,4.514322496092029180e-01,1.414537529105104052e-01,7.911263857224879459e-01
2.459199999999999875e+02,2.742128182176560569e-02,6.522431156551167231e-02,9.796941209564467457e+00,3.229020656684855606e-01,2.690095281404036309e-01,4.716682392252783962e-01
2.459300000000000068e+02,9.080484605061854564e-02,1.409790917431667616e-02,9.693881912414527235e+00,9.792762443362043601e-02,-2.335246495183599391e-01,3.198124297166994312e-01
2.459399999999999977e+02,-5.254240392791115211e-02,1.297400800221633621e-01,9.806871073382392723e+00,6.320045396525525438e-02,-1.802650706979798956e-01,3.892613813073844686e-01
2.459499999999999886e+02,1.212675812921069768e-01,1.002023919287968190e-01,1.003719053515589898e+01,2.748582937491291789e-01,1.265499410389972768e-01,1.052700315573626755e+00
2.459600000000000080e+02,-1.702403539809953514e-01,1.833798480407261566e-02,9.802746544932590567e+00,1.034618806638512301e-01,-1.778133563565521547e-01,1.680764598172971025e-01
2.459699999999999989e+02,-8.378963588321308720e-02,3.045918952584575901e-01,9.656175400249551899e+00,-4.074760250052869570e-01,8.672639907644474899e-02,4.689182779914278232e-01
2.459799999999999898e+02,2.048262711728085217e-01,1.155881505169217977e-01,9.828295231398914922e+00,5.893614273716031582e-02,1.322444199997151182e-01,1.239411899650931792e+00
2.459900000000000091e+02,-1.142612815198669196e-01,-1.113700789095636856e-01,9.831482531744827114e+00,-1.141893000852804985e-01,-4.784355579438188087e-03,4.528130876688504225e-01
2.460000000000000000e+02,1.251277024961426898e-01,-3.337944975929774821e-02,9.805183154979362214e+00,-2.506419996300712216e-01,-2.627610612149906544e-01,4.029542011277907343e-01
2.460099999999999909e+02,-2.597960338201959346e-03,-1.790621618534118664e-01,9.671058464036395463e+00,2.261221474938454323e-01,2.367767117809871091e-01,-1.023534516113045800e+00
2.460200000000000102e+02,-7.085916343043974566e-03,-1.464446844014002103e-01,9.882852571511619999e+00,-2.576669973964296201e-01,2.634699952678747903e-01,4.075273712385840130e-01
2.460300000000000011e+02,9.352615649754317251e-02,2.983406135338519394e-01,1.004611736424505430e+01,-5.245177427372177403e-02,1.640850852735906973e-01,-8.035724933149947236e-02
2.460399999999999920e+02,7.951657775365582326e-02,1.351727313339118330e-01,9.937547029363848594e+00,1.291631055753101887e-01,-3.968737583148784775e-01,-2.210983006038338625e-02
2.460500000000000114e+02,1.333751315437060325e-01,-1.684205173874599726e-01,9.921135863628121498e+00,-3.756163429283243538e-02,-3.436910337889125672e-02,3.749058163764101836e-01
2.460600000000000023e+02,-2.470553293951438870e-02,-5.529334197243912291e-04,9.665165557279182806e+00,-2.389300168868514485e-01,-3.724179409691423786e-03,4.719684580848287347e-01
2.460699999999999932e+02,1.429909571841081820e-02,-3.556589343416684257e-02,9.756210064984273345e+00,-1.117277321054516021e-01,6.629614204615676132e-02,6.788218051823635690e-01
2.460800000000000125e+02,-2.501933846739631470e-02,2.651653766614837648e-01,9.714555231779341327e+00,4.700284562908330944e-03,1.179947259310794999e-01,2.428906044891913918e-01
2.460900000000000034e+02,-1.111886596473876110e-01,-2.354955657748599995e-01,9.795933094487237369e+00,-3.468923371994396265e-01,-1.537749945146901220e-01,8.589512885557795130e-01
2.460999999999999943e+02,1.706287454105473098e-02,-6.348105575332468886e-02,9.891551572865166619e+00,-1.830375267353928637e-01,-2.020774049632667324e-01,3.903710317096411586e-01
2.461100000000000136e+02,-1.648871176677562875e-02,-6.242947213965393399e-02,9.883210028789395807e+00,-1.121470026952517754e-02,-1.201466531492303980e-01,8.863058277767286164e-01
2.461200000000000045e+02,-1.871384699716665545e-01,-7.131011886213442508e-02,9.823088434208914421e+00,-5.564707685231640166e-02,-2.906213044406495971e-01,2.297872832928366527e-01
2.461299999999999955e+02,1.109393543587840480e-01,2.577397707507733324e-02,9.703782180402548363e+00,-8.318376973240043659e-02,1.092617893975536686e-01,1.180542276792541367e-01
2.461399999999999864e+02,1.481032194269087804e-02,8.882836423323435537e-02,9.895665748086921454e+00,-7.208569692407224005e-02,3.857213796935551331e-01,7.268161429119502914e-01
2.461500000000000057e+02,-7.002288365439614248e-02,-5.211258678756535562e-02,9.863632737803950334e+00,3.383718738629530320e-01,-2.359388378322121727e-01,1.430201094585953070e-01
2.461599999999999966e+02,3.324252909825656244e-02,-7.694539062049031951e-03,9.490955465536019986e+00,7.118975573368463428e-02,-2.870980878543192283e-01,-5.007415735406693935e-01
2.461699999999999875e+02,-5.241100956269724442e-02,-9.547360577248165114e-02,9.846637337463409523e+00,-1.492784800872720696e-01,1.692141961093568958e-01,-2.062326786838069859e-01
2.461800000000000068e+02,2.014945178446898855e-02,-8.736498794411563795e-02,9.685309144579083096e+00,6.560328430819420756e-03,-3.464108140248324808e-01,1.655693466640737466e-01
2.461899999999999977e+02,1.387205268412806392e-01,4.111118019838602700e-02,9.779779829232046140e+00,-3.341245251855438914e-02,8.402252704509718950e-02,3.085549580113147727e-01
2.461999999999999886e+02,3.987503899178550942e-02,5.778213742645380707e-02,9.706356691828190719e+00,-8.193472075984753467e-02,-1.134179121204757223e-01,-2.524327710848181527e-01
2.462100000000000080e+02,-4.870657111590943888e-02,-1.844281982765623995e-01,9.826040354132096866e+00,-2.791576881251789030e-02,3.786105535030203084e-01,-5.495361142054577819e-01
2.462199999999999989e+02,-1.030947877858622574e-01,-7.285509642796945962e-02,9.842907132834728401e+00,7.040432854698967791e-02,-6.702937698088477780e-02,-5.313695951826236108e-01
2.462299999999999898e+02,-7.143384814718721498e-02,-3.227005995190070087e-02,9.847321395908386066e+00,-1.068066222047873437e-01,-9.874196193525990040e-02,-2.038330981533819364e-01
2.462400000000000091e+02,8.120390237978240833e-02,-3.853348511721391839e-02,9.827345132641852388e+00,-1.656366059389829393e-01,5.536641815803161268e-03,-1.212301491996983643e-01
2.462500000000000000e+02,-5.657013867317250803e-03,-2.639969423327219802e-02,9.831912743972822000e+00,-1.846761688235776244e-01,2.609210556665037539e-01,-2.523295585192324442e-01
2.462599999999999909e+02,5.597528756020167529e-02,-2.508984047198202227e-01,9.758358774628151266e+00,-2.443322215597317215e-01,-5.811335766755281601e-02,-3.526539254223152176e-01
2.462700000000000102e+02,-2.796521072075073416e-02,1.072488434655835265e-01,9.825630724062813570e+00,-8.967407815616893624e-03,-1.176985221940539533e-01,1.236799770753104877e+00
2.462800000000000011e+02,-9.333881156319406847e-02,-7.710960823382366838e-03,9.885144491102675346e+00,-1.788959607169340882e-02,3.649940247174323638e-01,-9.567284274459780802e-01
2.462899999999999920e+02,5.989984011251621443e-02,2.808004529077071099e-01,9.811512914355333237e+00,6.997399257980314868e-02,6.790370845468000904e-02,7.691328635339060756e-03
2.463000000000000114e+02,-8.088972712108410956e-02,6.282501984246327553e-02,9.812482851292232411e+00,-1.532871490314771379e-01,3.049521396186800071e-01,3.916236849692544264e-01
2.463100000000000023e+02,-4.079318125445338672e-02,3.825982694044866017e-02,9.712045198865862261e+00,-1.936997833917320291e-02,-1.354036206769823059e-01,3.162566486644398656e-01
2.463199999999999932e+02,-1.223915204838713078e-01,-8.571228084613533027e-02,9.867468437489824495e+00,2.775055868212095156e-01,2.711520264758204846e-01,1.383484633106161488e-01
2.463300000000000125e+02,-9.352003659238189437e-02,-5.816331453787618178e-02,9.918191473269486025e+00,5.368653388594368803e-02,5.238019966571157149e-02,5.537038341485872595e-01
2.463400000000000034e+02,8.957227321736219161e-02,8.024904249832304215e-02,9.898153501335608340e+00,-2.388799550525407267e-01,-4.845881598044343014e-02,5.359906218226696550e-01
2.463499999999999943e+02,1.047863802346405970e-01,-2.766158099621176744e-02,9.786265925605322380e+00,-5.613926662627349157e-02,3.481460765998695694e-01,1.019675021006341442e+00
2.463600000000000136e+02,1.091475748811778779e-01,-6.932259786835798243e-02,9.919517428976483586e+00,-6.629784902308815016e-03,1.728281917100049359e-01,9.005782930726724533e-01
2.463700000000000045e+02,1.094925821965621326e-01,1.889235262534716409e-01,9.818040109151425554e+00,-2.060233826715864025e-02,8.028797402373039072e-02,-1.045201731030946046e+00
2.463799999999999955e+02,-3.540317682366549840e-02,3.727022784702858221e-02,9.653453531517417474e+00,-1.615805892800456500e-01,5.776732897817779544e-02,8.050833750693693613e-02
2.463899999999999864e+02,6.653929700558268434e-02,7.940041859594701434e-02,9.903410895929493307e+00,-2.112699215096937658e-02,-5.537520495769122919e-02,-1.649611481656033107e-01
