t,ax,ay,az,gx,gy,gz
2.696000000000000227e+02,2.153021388967867322e-01,-2.276064149956726762e-02,9.865717823519547736e+00,-2.642816459156097086e-01,-1.502415497690866575e-01,1.213907448832701186e-01
2.696100000000000136e+02,-5.267678056840816719e-02,-2.258749166168803110e-03,1.001336501142026236e+01,-4.525569093960263301e-02,-6.958761083818788828e-02,1.229234884889835566e+00
2.696200000000000045e+02,-4.574368781984707033e-02,-3.449534923307601836e-02,9.779346453453053201e+00,1.056558276777385119e-01,-1.607532288768845352e-01,4.023994144558952213e-01
2.696299999999999955e+02,1.754389360272837206e-01,-1.779651705430004283e-01,9.752144745963603256e+00,5.206097706226490152e-01,-1.136535574133323324e-02,-1.553842497727025984e-01
2.696399999999999864e+02,9.690360331758242352e-02,-2.695977961999187697e-02,9.832261188416538289e+00,-2.050191478259467681e-01,4.873488529906511504e-03,-4.975365399424660495e-01
2.696499999999999773e+02,-4.432982761603920796e-02,6.028111553987061666e-02,9.782321408220012060e+00,1.068924047068944561e-01,-1.277501301538639666e-01,5.346676068233086054e-01
2.696600000000000250e+02,7.606045076590367549e-02,9.494655768316695443e-02,9.904509621010307185e+00,3.207793361721673620e-01,4.219381441691757995e-02,-5.480779167278075903e-01
2.696700000000000159e+02,-2.394351032549895189e-02,4.901564566123235017e-02,9.872303463904108511e+00,-1.196085736464511107e-01,-2.300212230063563429e-02,-7.086556026157889709e-01
2.696800000000000068e+02,-1.728163786333453827e-02,-9.565994178395659242e-02,9.839161977670141113e+00,5.244390568781716055e-01,4.656396580973809485e-01,6.781400935813967079e-01
2.696899999999999977e+02,-8.053828502973775505e-02,-5.016798859448590164e-02,1.003204792555848890e+01,1.917033028828292740e-01,8.385627318850641387e-02,-7.461653716909374401e-01
2.696999999999999886e+02,-2.433053148506608698e-01,-1.604593678262179746e-01,9.602169853614986650e+00,-1.630184380749410966e-01,-3.321775362224988620e-02,-9.004927054621446603e-01
2.697099999999999795e+02,-1.424873320506420959e-01,6.786576333560133401e-02,9.778898671263783982e+00,-6.772679078651694384e-02,9.940287869200589450e-04,2.090206569459948094e-01
2.697200000000000273e+02,-1.104605605016096420e-01,-8.920971927278506519e-02,9.800442747820396150e+00,2.341952056637527368e-01,1.188991054759918134e-02,3.366631768056866925e-01
2.697300000000000182e+02,4.190037738664481592e-02,3.723035506995965582e-02,9.915709547421167613e+00,-1.952843894720348306e-01,4.792126824623289122e-02,-2.348478050835074715e-01
2.697400000000000091e+02,1.534383043691375098e-02,4.486486260347752331e-02,9.879305723447025400e+00,-2.480950623732736671e-01,-2.639217837678699621e-02,1.480477305575784996e-01
2.697500000000000000e+02,1.086233284206993555e-01,-8.885218756155734143e-02,9.729854632121705649e+00,-8.887046486749226870e-02,-2.110689320727886509e-01,-4.727126244026396695e-01
2.697599999999999909e+02,-1.203336843585942201e-01,2.711964962375703128e-02,9.695113975948812524e+00,-1.724611233372910224e-01,2.931486704659386766e-01,-4.474653563449005889e-01
2.697699999999999818e+02,1.786790485439672116e-01,1.810589995097937610e-01,9.742481300944772826e+00,3.428826549526067802e-01,2.731286844514282941e-01,3.696751461469274247e-01
2.697799999999999727e+02,1.694353893545601508e-01,-3.504732287091013448e-02,9.784260585824188894e+00,-6.656178596401374215e-02,3.594971631764587450e-01,-4.671974216689484538e-01
2.697900000000000205e+02,3.543665004790962861e-03,1.084536997325644542e-01,9.952620104296087788e+00,-1.541870869028411084e-01,9.679876085832081478e-02,-6.249643108873749187e-01
2.698000000000000114e+02,-6.862503770635967892e-02,2.663293020824404611e-02,9.871544965276614292e+00,-3.096688687567504816e-01,1.037176423835513006e-01,2.493638382752411120e-01
2.698100000000000023e+02,-6.345030743032287202e-02,3.058039262905576372e-02,9.703973568812514827e+00,-2.990890691643542376e-01,8.162737288952154335e-02,7.749508245813319096e-02
2.698199999999999932e+02,1.981356081892998375e-02,-9.151022360216972545e-03,9.771532619044993595e+00,-3.399453188967107575e-01,-3.345580278984630063e-01,-1.388394505499320752e-01
2.698299999999999841e+02,1.882595303055584479e-01,9.326682125702062676e-02,9.931885842272194509e+00,3.862339412415773388e-01,-3.261587480010545437e-01,1.672135454629843435e-02
2.698399999999999750e+02,-9.492023943085592733e-03,-1.572125981377553786e-02,9.794732785456785606e+00,1.430353518346505204e-01,2.553792726743899233e-01,3.744486321177331045e-01
2.698500000000000227e+02,-1.582032577568155407e-01,6.003458271015757464e-02,9.917740045549711780e+00,2.794751985144232065e-01,-8.943908517311027762e-02,1.089961370273544311e-01
2.698600000000000136e+02,1.895367654099805177e-01,9.346442526367086667e-02,9.843730329885653774e+00,3.190796861988123845e-01,-1.525152289357560864e-01,-9.267702845271635903e-01
2.698700000000000045e+02,-4.003861099801894752e-02,1.015351240186047610e-01,9.873985766278954301e+00,2.959326477222937180e-02,-6.108646549997616415e-02,6.192435486319222138e-01
2.698799999999999955e+02,1.453796052072250100e-01,5.641731462201002995e-02,1.000197440926765324e+01,-6.641256697877837012e-02,-3.935206482119392446e-02,6.747912457631231042e-01
2.698899999999999864e+02,6.257765148306169978e-02,7.594562780679227354e-02,9.804589606105924560e+00,2.790455512819727257e-01,6.464689878997058325e-02,3.173440085687808110e-01
2.698999999999999773e+02,-1.484288764506478710e-02,2.959823243005427727e-03,9.711432229709769715e+00,2.538876743759103105e-01,-1.148129600799448896e-01,9.095454293360096809e-01
2.699100000000000250e+02,9.659395548597020376e-02,-4.245994782923179223e-02,9.748500584053562790e+00,5.284610804893290908e-02,2.220810508745411083e-01,-6.901502984423105724e-01
2.699200000000000159e+02,-7.347458774539152027e-02,3.299694794548273941e-02,9.812701118262369349e+00,-2.608152509700276123e-01,-2.244007365084100258e-01,-5.397096681657241879e-01
2.699300000000000068e+02,-2.909568643404611410e-02,3.393548414538593433e-02,9.811512922475268184e+00,4.574621040356121465e-02,5.448266860446863147e-01,5.097900119138091268e-01
2.699399999999999977e+02,-5.307353543328124923e-02,3.345141077629969206e-02,9.751033609950036762e+00,-7.834823898686156529e-02,1.004286688566286279e-01,-7.939705336803346558e-01
2.699499999999999886e+02,-2.006811312128850555e-02,1.114864865261456645e-01,9.946714449504030497e+00,-4.316435705170188486e-01,-1.144109029338713779e-01,1.091631981041352173e-01
2.699599999999999795e+02,5.477505892989140146e-02,3.413951882716003729e-03,9.823235199882295987e+00,-3.702597541817086169e-02,-1.007586500983625871e-01,7.326103951823199623e-01
2.699700000000000273e+02,5.402821640258873015e-02,-1.353013912953672793e-01,9.875838989148759239e+00,-2.441310976761747187e-01,1.030240512213604492e-01,7.565233023929492928e-01
2.699800000000000182e+02,-1.555316999792983046e-01,-2.035064948658974471e-01,9.667857631021277598e+00,-3.261459598572289398e-01,-4.104097361108159127e-03,-4.230584242084755586e-01
2.699900000000000091e+02,-5.355397709355035757e-02,1.882772668762018597e-02,9.665051440162566010e+00,-7.141319803010354184e-02,3.554890039389664302e-01,8.079216797372999748e-02
2.700000000000000000e+02,-3.628911987183721516e-02,1.027403994172940149e-01,9.744980556913260372e+00,-4.010534851421079794e-02,9.754045553999692031e-02,-8.950866420298841941e-01
2.700099999999999909e+02,5.861515903256682425e-02,-2.095260496197516586e-02,9.888618595901224495e+00,-4.157644608232588523e-02,-1.362469203316648281e-01,4.799574124927164509e-01
2.700199999999999818e+02,-1.400317297235662561e-01,1.878579398945958712e-01,9.653586655606176237e+00,9.210914235677458706e-02,1.621138438243341362e-01,-4.299633665466607857e-01
2.700299999999999727e+02,7.064677488979768938e-02,1.644926949363723079e-02,9.703604677106383747e+00,1.032486980047653269e-01,-1.354014388083013276e-01,9.481876694267608041e-01
2.700400000000000205e+02,-1.126708958348473510e-01,2.404945359880168165e-01,9.623911950069963694e+00,1.554487500516249857e-02,1.487698311117977013e-01,6.267080056802620813e-01
2.700500000000000114e+02,2.483476840019610207e-02,-8.575001595131493196e-03,9.596309952529461285e+00,-2.503275192364071144e-02,-3.769737211092014650e-01,-9.391682603716102222e-04
2.700600000000000023e+02,1.114439665000422769e-01,1.582472480503465673e-01,9.853847178052301814e+00,2.730316780547905053e-01,-4.044961501803128745e-01,-2.074305816072219977e-01
2.700699999999999932e+02,-1.226880384571713556e-01,-4.083087775096135019e-02,9.961784755585737727e+00,-1.956847575943782280e-01,-2.239136326118447706e-01,7.007093079550739123e-01
2.700799999999999841e+02,2.417496755471612926e-02,1.073000289231637594e-01,9.876817388643987172e+00,-3.225782995397845632e-01,1.321991845602964732e-01,-1.331411899755797490e-01
2.700899999999999750e+02,-1.854812457315435995e-02,5.991186843536674966e-02,9.841891124057420726e+00,4.861137947794504088e-02,-1.308432300811268323e-01,3.096506607718303439e-01
2.701000000000000227e+02,-9.774476666350193077e-02,3.588641843538738913e-02,9.780338659319726347e+00,-3.157894637168099927e-01,-1.230065348596151298e-01,-1.327405465555283326e-01
2.701100000000000136e+02,-1.224962756530278973e-01,3.545475163412070696e-02,9.842962307431895042e+00,-3.291922205028755335e-03,8.519514965984975596e-02,-6.084345528871486497e-01
2.701200000000000045e+02,-7.075339168824167080e-02,1.429326127651578404e-01,9.795605531789036036e+00,1.629198737202173508e-01,-3.275777069892277238e-01,1.036405382454124835e+00
2.701299999999999955e+02,-8.104997409185407675e-02,-1.586291723970552001e-02,9.870984978985095637e+00,-6.698243232930040092e-02,3.562316861144497471e-02,-5.700111976280164416e-01
2.701399999999999864e+02,-2.055954310453375275e-02,1.271841413405080251e-02,9.769108254570939565e+00,-5.127950437822366425e-02,-1.301720025078613452e-01,9.464980629295293157e-01
2.701499999999999773e+02,-4.266243803778972665e-02,2.749242015957679697e-01,9.858752763868096736e+00,2.607715358951196993e-01,3.329779810198980616e-01,-3.516244516746586113e-01
2.701600000000000250e+02,4.236162120725045499e-02,5.615874658717141810e-02,9.624950432159755209e+00,-6.354403752771903280e-02,-1.656353745364825408e-02,4.462353417181131321e-01
2.701700000000000159e+02,8.084922744288519647e-02,1.252023225956275521e-01,9.600323832346296271e+00,-6.198892880599320837e-02,-1.769889838135791094e-01,2.721393160215057061e-01
2.701800000000000068e+02,-1.529005636597142725e-01,-2.267021237298028069e-02,9.932719429554206059e+00,-1.550428929290193630e-02,-4.806910890066897757e-01,1.373919849629035295e-01
2.701899999999999977e+02,-2.506505744368442423e-02,-5.167849257260018897e-02,9.728988678666301126e+00,4.377986676109422715e-01,-8.027712466077382980e-02,-4.522177212723373918e-01
2.701999999999999886e+02,-9.499246437962541312e-02,7.892041021100706932e-02,9.939647724157657294e+00,-1.599536839658830256e-01,-1.569149203849026786e-01,-4.418023301472663311e-01
2.702099999999999795e+02,-1.085166321103892551e-01,2.386226968467401038e-02,9.864994802937522067e+00,1.291458693972979965e-02,-3.152834224982178912e-01,-7.501413397207561395e-01
2.702200000000000273e+02,-1.568801635084647872e-01,-1.808408915296746272e-02,9.744802348735719377e+00,-2.981658404139286289e-01,-2.490579643430229084e-01,-3.685008159881448808e-01
2.702300000000000182e+02,-1.642689482195360817e-01,-1.669176139502343559e-01,9.815363848327612217e+00,-2.782714509735224606e-01,3.204384277674613979e-01,7.020505969162575965e-01
2.702400000000000091e+02,-5.191259997204938914e-02,-1.770685858071351093e-01,9.796783413622048187e+00,1.812617977264664448e-01,-5.082468824486187364e-03,-1.899388778863989879e-01
2.702500000000000000e+02,3.929078333346359975e-02,-1.923595581506943319e-01,9.914548597053871148e+00,-1.637792154409479506e-01,3.242979778386998468e-01,-4.223597625589800009e-01
2.702599999999999909e+02,3.893470228067903022e-02,3.578387641664743102e-02,9.717522715558462920e+00,6.565751080459801547e-02,1.310053226051478142e-03,6.931689877104985076e-01
2.702699999999999818e+02,-1.052679283903083240e-01,-1.058057893086729317e-01,9.894826835354669115e+00,-8.334931508533230393e-02,-7.036128980021735813e-02,7.498754632305773549e-02
2.702799999999999727e+02,-1.153820886643597970e-01,-1.727122997496457479e-01,9.735619694927191148e+00,5.097279790586025650e-01,1.104560172353255265e-01,-5.560762300695256677e-01
2.702900000000000205e+02,2.392448538001344660e-02,-8.674525487868571527e-02,9.675780683672451588e+00,1.716012188740125843e-01,-2.002680848395734514e-01,-6.336889215711864753e-02
2.703000000000000114e+02,-4.317426573035035992e-02,-1.902341395175893290e-01,9.681990361834689196e+00,1.813164114986911060e-02,-7.406193330002123001e-03,-4.389560888366418889e-01
2.703100000000000023e+02,8.897101816034021227e-02,-6.070545932658923116e-02,9.719408162655925665e+00,7.994462280404357468e-02,-6.898692152316468484e-02,2.261266978677000661e-01
2.703199999999999932e+02,-1.110721144718297693e-01,-6.565947574030124578e-02,9.726583501667832365e+00,-2.631857041614439896e-01,4.401787625246751934e-01,1.473256807605703989e-01
2.703299999999999841e+02,-1.857710951431719160e-01,5.077316071082156601e-02,9.768497636591089162e+00,5.388542724070608664e-02,-1.639011690730139970e-01,1.160470163233946334e-01
2.703399999999999750e+02,6.124842102978152181e-02,1.633466986425645071e-02,9.788899054852622683e+00,-8.085759281272264509e-02,-2.276639779729008363e-03,-4.660619114612704617e-01
2.703500000000000227e+02,-1.890039263605020337e-01,-4.810969941661878690e-02,9.748492837231196972e+00,2.896882457199456695e-01,-1.261278126467991478e-01,-2.434214098861186282e-01
2.703600000000000136e+02,-1.445799902246342750e-01,6.600910840474191743e-02,9.769495646668035604e+00,-7.409989704547401829e-03,2.903699932831942457e-02,-4.788265089224760102e-02
2.703700000000000045e+02,-6.692283896975470547e-02,-1.240578963456284572e-01,9.951401866039105926e+00,-1.640879577840095305e-01,-4.354538394925251410e-01,-3.901615847186731822e-01
2.703799999999999955e+02,-2.849934417508762086e-02,-4.765263847370793115e-02,9.760673629588493938e+00,3.022936860421594485e-01,8.963947262640807601e-02,1.621727595075350137e-01
