t,ax,ay,az,gx,gy,gz
2.823899999999999864e+02,-1.513850022601458123e-01,-1.847097335298089338e-01,9.970273830074443566e+00,-7.704163178767009512e-01,-6.377044831017124327e-02,-1.622247190940855432e+01
2.823999999999999773e+02,3.224118554095230932e-02,-4.959719262323356026e-02,9.752928088872243606e+00,-4.499180894747821513e-02,3.947658252549406804e-02,-1.526192300760261844e+01
2.824100000000000250e+02,7.592102322836977515e-03,-2.702354350924939252e-01,9.760115875234768978e+00,-2.336861642616443191e-01,2.210609586033851215e-01,-1.420235790521016916e+01
2.824200000000000159e+02,-4.308601607562784208e-02,-1.208926237742175003e-02,9.735300193722508766e+00,2.599142663020909683e-01,5.106884809200764458e-03,-1.522597062573578697e+01
2.824300000000000068e+02,6.184244124770871265e-02,-1.931038291139192953e-01,9.858904896796483186e+00,2.637985359142254738e-01,-2.976317761752494614e-02,-1.504872919099674888e+01
2.824399999999999977e+02,4.976221175523534018e-02,-1.131294089855951479e-01,9.727142660493703019e+00,1.677044331212659001e-01,3.620446732910668208e-01,-1.447593775935885319e+01
2.824499999999999886e+02,-1.196912962747972015e-01,-6.007005927245141763e-02,9.889050683633646699e+00,9.778773049994203548e-02,-3.019407018249915531e-01,-1.568382690629654874e+01
2.824599999999999795e+02,-4.678452334317717565e-02,-1.475325296287826882e-01,9.833985089825553416e+00,-6.502408253323320453e-02,1.851330227609616075e-01,-1.494776613746934757e+01
2.824700000000000273e+02,1.094424865642316808e-01,-1.698797607243024421e-01,9.825161957270577062e+00,-1.120880540030885081e-01,2.771818440918034643e-01,-1.497031217357386446e+01
2.824800000000000182e+02,-9.797339275241835621e-02,-1.520263560552563287e-01,9.891166069755421120e+00,-3.026883916313593756e-02,1.666147755944488371e-02,-1.481304048884932989e+01
2.824900000000000091e+02,-1.723607163293432859e-02,-3.607897991424062756e-01,9.787419822711221684e+00,4.040249316839757653e-03,1.217557561731008597e-01,-1.502504274260739159e+01
2.825000000000000000e+02,2.271782297216455235e-02,-4.320661907578681182e-01,9.946948115349172781e+00,-5.442084593047343821e-01,-3.898959986708768755e-01,-1.538241685435577466e+01
2.825099999999999909e+02,-1.153890834519817610e-01,-9.109937298288056651e-02,9.794139346837855697e+00,3.803525483183708977e-01,-1.207776058206523617e-01,-1.505793171489360027e+01
2.825199999999999818e+02,-9.841608859481728797e-03,-1.995607788020550277e-01,9.695872956719254532e+00,1.003544337653897341e-02,1.020184281642314561e-01,-1.500315049691749358e+01
2.825299999999999727e+02,-1.312452403441337172e-02,-2.519287872533274575e-01,9.795389291520063324e+00,9.187321095504799584e-02,-2.186554594952804242e-01,-1.531577086764433915e+01
2.825400000000000205e+02,-3.234799952556140223e-02,-1.446138760815610658e-01,9.687750952227682788e+00,2.439591914239470916e-02,4.340838726340421339e-01,-1.489218332324853122e+01
2.825500000000000114e+02,-1.530556586195073177e-01,-1.823744268360583398e-01,9.928335554126736184e+00,1.099451623635429309e-01,2.111849230233900365e-01,-1.577384235987794447e+01
2.825600000000000023e+02,-3.117807579657900672e-05,-2.960082665462453466e-01,9.831713537464301211e+00,-1.656180982412797653e-01,-1.463815924704857940e-01,-1.494065439805305218e+01
2.825699999999999932e+02,-6.185674079062269265e-02,-7.195504926458895500e-02,9.749243846227193089e+00,5.809046084155947837e-02,-6.283644776112852492e-02,-1.503404569966084559e+01
2.825799999999999841e+02,1.065777696151861548e-01,-5.362434201323826310e-02,9.882000807124986963e+00,2.305466161293595051e-01,2.760084076129020181e-01,-1.539011567841507677e+01
2.825899999999999750e+02,4.156734300289435108e-02,-1.456292649470768141e-01,9.823224388212496549e+00,-5.310663998316897394e-02,-3.541702292708739930e-01,-1.526117365007497639e+01
2.826000000000000227e+02,-7.770364852041694581e-02,-1.502194230051641100e-01,9.795940802659648838e+00,5.467194643803924281e-02,-1.904766614274064906e-01,-1.485591578464733509e+01
2.826100000000000136e+02,-3.954738176751435713e-02,-1.677538095481760361e-01,9.726759103070083512e+00,5.693958508362173543e-02,-2.122971032395069568e-01,-1.471698586872905068e+01
2.826200000000000045e+02,1.251264286588649535e-02,-1.546826836234344305e-01,9.800864054383078283e+00,-1.423407724940810304e-01,1.356097420860337965e-01,-1.597982610834223927e+01
2.826299999999999955e+02,-3.970746814632031274e-02,-1.317532379877445758e-01,9.652659294291884962e+00,4.398918669670687231e-01,1.692150869396208956e-01,-1.436128266599438419e+01
2.826399999999999864e+02,-1.515165466605095101e-01,-2.136439818070829666e-01,9.957043538261759252e+00,-1.905268710691185308e-01,-8.038814695155591106e-02,-1.453917843168499324e+01
2.826499999999999773e+02,2.923615215783640503e-02,-8.639680560612025828e-02,9.662275329254178757e+00,2.721933976219892415e-01,3.745768143588826815e-01,-1.457727154932884162e+01
2.826600000000000250e+02,5.261685817056288572e-02,-1.496446358148717792e-01,9.886543371259852719e+00,2.041127270689734319e-01,-5.873722258549091135e-02,-1.549244795932629337e+01
2.826700000000000159e+02,7.408997966762480292e-02,-8.933346450988424725e-02,9.732800306630931431e+00,-1.388249437182735857e-01,-6.638921578413252943e-03,-1.471450872927229625e+01
2.826800000000000068e+02,9.387442510211890800e-02,-4.053025492185499679e-02,9.804718992839356773e+00,-1.846811031601546527e-01,-8.379979774843898666e-02,-1.570988388291201154e+01
2.826899999999999977e+02,-8.283615754758799632e-02,-1.630344906994945775e-01,9.900428494047810446e+00,-9.948132791415743859e-02,-1.951079263410129523e-03,-1.491742874435376898e+01
2.826999999999999886e+02,7.847563316218804375e-02,-1.333816068553113632e-01,9.925607971114128958e+00,3.314650551165294542e-03,-4.664054648934559677e-02,-1.480266207541494161e+01
2.827099999999999795e+02,-1.141782983701065124e-01,-1.022472689220433467e-01,1.001597213448450852e+01,8.892790738842321074e-02,5.001975907809855584e-03,-1.498025228062928704e+01
2.827200000000000273e+02,3.571587739411587886e-02,-1.596228894648470120e-01,9.937769363629154640e+00,-8.215416625533011885e-02,-2.709503014697403067e-01,-1.461635154743810894e+01
2.827300000000000182e+02,-7.086993642282728156e-02,-2.010836133876152398e-01,9.757112238161138151e+00,-3.491127418624027090e-01,6.558694425523105276e-02,-1.479357044720489789e+01
2.827400000000000091e+02,4.183097245066590142e-02,-1.483611147246017281e-01,9.748742200169115080e+00,-1.000737939620852113e-01,6.240083278445332504e-02,-1.441627945795150012e+01
2.827500000000000000e+02,-1.507853933197101926e-01,-3.659874677768976126e-02,9.862489778737511870e+00,-1.602663256151877214e-01,1.233848425260179599e-01,-1.420530640104012399e+01
2.827599999999999909e+02,5.427296712235862852e-02,-4.086290955073288433e-01,9.825785155130546400e+00,-2.675467530007575312e-01,5.110858228000008108e-01,-1.499885340368417808e+01
2.827699999999999818e+02,-7.866795554419120373e-02,-9.200100006558327437e-02,9.789184716641681661e+00,-5.001686953840886463e-02,-2.204398599226499444e-01,-1.457692860364979737e+01
2.827799999999999727e+02,4.828432312847351360e-02,-1.511111055316305962e-01,9.695305390625884812e+00,-1.584294651184990077e-01,-4.070062123845785695e-01,-1.558738564323797959e+01
2.827900000000000205e+02,3.727414701351369070e-02,-2.188623926939415876e-01,9.834634104158739731e+00,8.482660909521930193e-02,-1.087909859200692914e-01,-1.472968228495304643e+01
2.828000000000000114e+02,3.854129221135673550e-02,-7.998556230074366225e-02,9.779727902449083743e+00,8.125086187588202724e-02,7.434596981259579407e-02,-1.450281259049209481e+01
2.828100000000000023e+02,4.760134454362942302e-03,-2.870950392185966926e-01,9.922093161572721698e+00,1.470865301669503633e-01,-9.973462213046074831e-02,-1.493617934108812584e+01
2.828199999999999932e+02,-1.167161011827624328e-01,-2.067545059028088605e-01,9.957613424558457993e+00,2.597527979995579717e-01,2.339776039712040401e-01,-1.486817106663466070e+01
2.828299999999999841e+02,1.490330047628447285e-01,-3.549644477609020798e-02,9.686428320005736836e+00,2.314692677537994597e-02,-4.982341749118390090e-02,-1.550363671123059461e+01
2.828399999999999750e+02,-1.299441749985457556e-02,-3.560359767371080730e-01,9.801129800502581091e+00,2.782368533012138934e-02,-1.453075319899033990e-01,-1.504451392173650959e+01
2.828500000000000227e+02,-1.324469014465880223e-02,-1.165586037923791174e-01,9.784958435580939806e+00,-6.589694527168592220e-02,2.823089483745637174e-01,-1.551649098750424116e+01
2.828600000000000136e+02,1.384838975697313124e-01,-2.281269860713758257e-02,9.828249805848443543e+00,-1.182262115303884670e-01,2.151172328358411656e-01,-1.524801735974341987e+01
2.828700000000000045e+02,-8.889412997246302905e-02,-5.630118342655084096e-02,9.777337009592393713e+00,-1.732421116247106763e-01,2.283273818110675979e-01,-1.511915902929877120e+01
2.828799999999999955e+02,-4.748316461845251100e-03,-1.268159449330517885e-01,9.886214340516245258e+00,1.336890326463647527e-01,3.641277821530070069e-01,-1.503773710289311083e+01
2.828899999999999864e+02,1.697590647872222400e-02,-2.626267714045327772e-01,9.758904603468488759e+00,-4.806911719581925535e-01,3.368747295659939300e-02,-1.547235012731665726e+01
2.828999999999999773e+02,-2.317494398375909148e-02,-7.729736993798960731e-02,9.905651810419239922e+00,-1.531909628501072484e-01,-1.648866055693762600e-01,-1.466502504863041700e+01
2.829100000000000250e+02,2.732538833871209216e-02,-2.294534831326429103e-01,9.789810864434157267e+00,1.387132799925339111e-01,-3.253046447700135846e-01,-1.482066052472071149e+01
2.829200000000000159e+02,-5.813065462115173804e-02,-1.821930503971289916e-01,9.874573079541701048e+00,-3.208874328817581945e-01,1.687706093500020432e-01,-1.451569154476240620e+01
2.829300000000000068e+02,-6.819330273561863449e-03,-1.718433654407693356e-01,9.691922367227364887e+00,1.055369255466490075e-01,1.435843134246338193e-01,-1.521277591021099695e+01
2.829399999999999977e+02,1.312679917282588010e-02,-2.897520276865175881e-01,9.796163412696838435e+00,-2.754338866268512542e-01,-1.932843218366725110e-02,-1.504368440669175477e+01
2.829499999999999886e+02,1.367016882243649867e-01,-3.729060922973176373e-02,9.868137078185892364e+00,-2.708930837261353669e-02,1.607139384229666623e-01,-1.604677281066064154e+01
2.829599999999999795e+02,1.656199105651475212e-01,-1.758349405302757906e-01,9.828823831074638306e+00,-1.061409688669826407e-01,1.992453184742406028e-02,-1.406155792552796946e+01
2.829700000000000273e+02,1.694995837560459365e-02,-1.738889545860823338e-01,9.690217867576597754e+00,1.901110414048929054e-01,1.106774319796989953e-01,-1.485886013496457991e+01
2.829800000000000182e+02,1.199237556609238919e-01,-2.278469137068427075e-01,9.835022021201224263e+00,1.834034423313006812e-01,4.123232694342536531e-02,-1.441887654676295583e+01
2.829900000000000091e+02,-7.250821727725907662e-02,-2.375041247912546838e-01,9.528848284438295124e+00,-8.692516094896039769e-02,-5.496218950339315512e-02,-1.476973041589631208e+01
2.830000000000000000e+02,2.251317973751833235e-01,-1.049690409201064073e-01,9.637303210688314081e+00,-2.496508721099798267e-01,-4.245868655204103614e-01,-1.419432269951048653e+01
2.830099999999999909e+02,-2.447182361639275994e-02,-1.023591203683749812e-01,9.792194276229372107e+00,-5.230380466450782612e-02,2.071652418806860241e-01,-1.468800847462253678e+01
2.830199999999999818e+02,-3.283220724730727576e-03,1.305543441744272670e-01,9.691909593007649093e+00,-1.368067640895595516e-01,9.042939456264825759e-02,-1.612665888420159277e+01
2.830299999999999727e+02,5.320436975973459603e-02,-1.978003942611362420e-01,9.814902994588635465e+00,-7.300995720054211102e-02,3.038470256658322710e-01,-1.613226588379184889e+01
2.830400000000000205e+02,8.525321208849549748e-02,-2.090165093165570753e-01,9.658675232400501187e+00,-1.928778799361032803e-01,9.611881740687747144e-02,-1.449802203435734249e+01
2.830500000000000114e+02,-1.714424894694721938e-02,-5.595558728242058799e-02,1.000970237692895637e+01,1.070279199371091394e-01,1.980422576028229575e-01,-1.463309720775878908e+01
2.830600000000000023e+02,-2.008199810766007620e-01,-8.251943281302270838e-02,9.735041438478603482e+00,-1.015270462946031710e-01,-1.315262812797251546e-01,-1.473628780131132210e+01
2.830699999999999932e+02,6.558628245023655212e-02,-1.956167796479901244e-01,9.935264594727337695e+00,-1.232446824595189068e-02,2.866309712317851033e-01,-1.478451055872591624e+01
2.830799999999999841e+02,-9.100940390980373496e-02,-1.313651237828432905e-01,9.820476645321665643e+00,-2.607514273641137748e-01,1.325969526118237762e-01,-1.411399053277401272e+01
2.830899999999999750e+02,7.742060898615760189e-02,-1.060285187234213944e-02,9.814516409404641095e+00,2.021129415180225042e-01,-9.101946947797995291e-02,-1.517385612872691603e+01
2.831000000000000227e+02,7.523113686385285437e-02,-2.857489298887431195e-01,9.782530886816774185e+00,1.131702637738106199e-01,6.598162890821394899e-02,-1.504855560331859898e+01
2.831100000000000136e+02,1.925795021393715903e-02,-2.408912741078968467e-01,9.904828642624751822e+00,-1.790047788636355552e-01,-2.713805757790526199e-03,-1.489356137587519946e+01
2.831200000000000045e+02,9.043069312626078604e-02,-1.237681399536934151e-01,9.877149581273323875e+00,3.810994617262003503e-01,2.139038027528412933e-02,-1.524628342130656833e+01
2.831299999999999955e+02,-4.903114683832891091e-02,-2.342776915224109580e-01,9.805084583174938473e+00,-6.670231264759166057e-02,3.289799186059540973e-03,-1.461461476039463570e+01
2.831399999999999864e+02,1.374763135616068888e-01,-2.293203289368693776e-01,9.823892763423456742e+00,-2.447250458674083973e-01,-7.155022790493657803e-02,-1.484349643325752055e+01
2.831499999999999773e+02,1.629336644195052836e-02,-4.389944960305895705e-02,9.946980745623024589e+00,-3.619559847323602919e-02,-1.263540895765842553e-01,-1.571020853469397061e+01
2.831600000000000250e+02,-1.853233563512804438e-02,-1.253411622776106626e-01,9.812447866463358537e+00,1.872307120391719648e-01,-7.787542816058090622e-02,-1.516220966060988928e+01
2.831700000000000159e+02,1.141271441163765332e-01,-1.721446787485049201e-01,9.805318781576636056e+00,4.276425460797741995e-02,1.526508878671868352e-01,-1.451622802557481506e+01
2.831800000000000068e+02,-6.651854332225339006e-02,-2.443837700480042952e-01,9.706410968232860981e+00,-8.422904003390610517e-02,1.623797075110213761e-01,-1.521842403499687713e+01
2.831899999999999977e+02,-2.104764858203345135e-01,-1.300061166204206642e-01,9.822194408575288804e+00,2.677773522235120107e-01,7.439989140262852352e-02,-1.405059624068464075e+01
