t,ax,ay,az,gx,gy,gz
2.191999999999999886e+02,6.790160760438261611e-02,2.312623750353487995e-01,9.775996724734831389e+00,-1.628081526299913206e-01,-3.765816145291482619e-02,1.519034513812097664e+01
2.192100000000000080e+02,-1.698492581688212377e-01,-2.046819629143528663e-02,9.595771321715432123e+00,-3.298250287713932333e-02,2.450615510190837787e-01,1.538812527988530832e+01
2.192199999999999989e+02,-5.326813069143703644e-02,2.597453777413767928e-01,9.892027608257139448e+00,5.168402689984342713e-01,-4.055407334771719136e-02,1.488932377632021797e+01
2.192299999999999898e+02,-1.626384874504523126e-01,1.207172111890409405e-01,9.824741304197655012e+00,-2.982221318808307986e-01,2.123718862467401935e-01,1.509010076833746616e+01
2.192400000000000091e+02,5.505529479153625089e-02,-4.330799456550102344e-02,9.829858767608122605e+00,-1.766986062577365346e-01,2.259399727085977527e-01,1.421615159104611692e+01
2.192500000000000000e+02,-1.210671060884101480e-01,3.675638978491399533e-02,9.874254102896776075e+00,-9.594318305884196041e-02,-3.388996417209265422e-03,1.558638211234987381e+01
2.192599999999999909e+02,-2.869899174600812342e-02,1.165485831872589695e-01,9.852902993514382146e+00,-3.582626338696690560e-01,-3.578257236186186407e-01,1.546549982845135496e+01
2.192700000000000102e+02,-4.413577616815780001e-03,9.499309138943655417e-02,9.680657394911410307e+00,2.901713060623989371e-02,1.107772572593098970e-01,1.496791259574550637e+01
2.192800000000000011e+02,-2.892904036476134574e-03,1.679413907628390379e-01,9.758771874313149297e+00,1.594051078717158842e-01,1.272640384386857781e-01,1.596896927985116577e+01
2.192899999999999920e+02,-4.728706620033470975e-02,2.125201988019833899e-01,9.835873294328767003e+00,-1.858331273331637057e-01,-1.013130621701641837e-01,1.430971201665371240e+01
2.193000000000000114e+02,3.367160309680632818e-02,1.552196045681779324e-01,9.816317955232291226e+00,3.231438241737834005e-01,1.416265973027765468e-01,1.480170188897272254e+01
2.193100000000000023e+02,-1.254237534677395960e-01,1.194201327763529663e-01,9.624060727573828800e+00,7.907896520957831410e-02,1.026100202368067926e-01,1.524602308378488758e+01
2.193199999999999932e+02,1.739279442772578010e-01,1.808554199751455649e-01,9.741878446657249668e+00,-1.592115731846536764e-01,-4.459887738020060048e-04,1.440054083558883669e+01
2.193300000000000125e+02,-1.034064996141160625e-01,1.822491122858606039e-01,9.928837255887124513e+00,-1.958968556528934216e-02,1.208166594255381671e-01,1.559509565218485072e+01
2.193400000000000034e+02,3.969764518158545342e-03,2.935427052193031461e-01,9.461813537577885569e+00,5.129374773527306530e-01,-1.973383912894117187e-01,1.477323303402667065e+01
2.193499999999999943e+02,6.249630727935845398e-02,1.055857261777821132e-01,9.555363645235511072e+00,-4.036630960246864741e-02,-1.644424321891831964e-01,1.493139277202491222e+01
2.193600000000000136e+02,6.827160809291422938e-02,1.555582797326626743e-01,9.789773598556319456e+00,8.505031570092029536e-02,-2.937504723790475628e-02,1.554150457453009615e+01
2.193700000000000045e+02,7.753605022205854735e-02,3.314503566993066697e-01,9.831712275122026057e+00,2.838064903492232838e-01,-3.442058728721623106e-01,1.485192510399017785e+01
2.193799999999999955e+02,-1.592766493977497699e-01,4.471589122270003269e-02,9.787829967871250147e+00,1.241740324005401359e-02,4.082825538260752979e-02,1.426940624677833647e+01
2.193899999999999864e+02,-9.173919852632801686e-02,1.301665932949161997e-01,9.893625301077278777e+00,2.893051265663870164e-01,-6.103794624011143338e-02,1.471816893684239780e+01
2.194000000000000057e+02,1.358578495528879604e-02,7.522507588911578336e-02,1.003070589186700090e+01,-5.419624925711045288e-02,6.933651168246859897e-02,1.433350279775676306e+01
2.194099999999999966e+02,4.811664082986200075e-02,4.125463646827320918e-02,9.896389389928872404e+00,1.271211816565360336e-02,-5.206907235432978176e-02,1.446420379682735735e+01
2.194199999999999875e+02,1.257128308260974381e-01,1.891943578186187636e-01,9.621070230956206615e+00,-3.342534160076390121e-02,-2.404904889659376099e-01,1.467283056113900130e+01
2.194300000000000068e+02,-5.140189141911219450e-02,2.997056807476854434e-01,9.725847085927906477e+00,3.612488389873896172e-02,2.547374440452243038e-01,1.493528399736046453e+01
2.194399999999999977e+02,-9.049939934941328423e-02,3.764352161064153379e-01,9.818882195252111700e+00,-7.592581149276736441e-02,-3.259429061782011944e-02,1.570686490943614899e+01
2.194499999999999886e+02,-5.468297061108588070e-02,1.624588843829493368e-01,9.644854048859668794e+00,3.287871093760871277e-01,-1.029813192032596192e-01,1.449092716899887279e+01
2.194600000000000080e+02,2.259432135098616845e-01,2.171486340976805929e-01,9.858221717045854149e+00,-6.478776118982400301e-02,4.320829190417699306e-02,1.531053906032697753e+01
2.194699999999999989e+02,1.500428029734642843e-01,2.208108910486393794e-01,9.871386721106389928e+00,1.299176785619379215e-01,2.812404686507410378e-01,1.469930695393135878e+01
2.194799999999999898e+02,-1.694919708072041217e-02,1.460631529365293835e-01,9.595468448572953335e+00,1.181465400268725541e-01,1.653943509869110484e-01,1.472857060229493698e+01
2.194900000000000091e+02,1.284803699871247262e-01,2.947281705294465537e-01,9.823512984337193998e+00,3.070698777674205071e-02,-1.097478376466614058e-01,1.536703472474300547e+01
2.195000000000000000e+02,-5.724848065451609153e-02,1.502166795072707728e-01,9.845587523369966121e+00,-4.305739457685908156e-01,1.128176193928351334e-01,1.376290838158468688e+01
2.195099999999999909e+02,9.545186119264573166e-02,2.752579535381213804e-01,9.683847624226162409e+00,1.257665441675621110e-01,2.067293719237948135e-01,1.467930581049372485e+01
2.195200000000000102e+02,-1.378918709873966641e-01,1.310117804456024659e-01,9.786627786094301840e+00,-2.112476587387307481e-01,-1.683187026100339545e-01,1.541105349294786997e+01
2.195300000000000011e+02,3.564902917835151286e-02,5.135843839858375559e-02,9.863512193051006349e+00,1.610013011208517031e-01,2.399788057463929647e-01,1.549911195949365172e+01
2.195399999999999920e+02,1.019469925029487523e-01,5.758244595802261556e-02,9.747381913327112457e+00,1.938560673775535648e-01,-6.786729326876256296e-02,1.498352831885504166e+01
2.195500000000000114e+02,-3.266334019375887604e-02,4.820744934039861151e-03,9.917808865171899413e+00,1.109844223230114363e-02,1.472588932409334417e-01,1.490222626472221279e+01
2.195600000000000023e+02,6.134157022483732041e-02,2.930143377491724044e-01,9.700520058205508889e+00,-4.026156136948285114e-01,-1.104973121393529878e-01,1.419249508521893866e+01
2.195699999999999932e+02,-5.615575147736843326e-02,2.943853726268345627e-01,9.780927872953510516e+00,-3.183072340525980870e-01,-1.131055039536821571e-01,1.443664651691989320e+01
2.195800000000000125e+02,3.035436470029310996e-02,9.523489457576531092e-02,9.776656459921856168e+00,2.471861700619011337e-01,-1.374150998594913988e-03,1.549173449719580731e+01
2.195900000000000034e+02,-4.815442578610494573e-02,5.990927705203510922e-02,9.786832908674487186e+00,-2.569129257732337135e-01,-9.684496589514873799e-02,1.572825199749813940e+01
2.195999999999999943e+02,8.191378140700179833e-02,8.902898043109500059e-02,9.837663387416140992e+00,1.622236888874438732e-01,7.254238570262039332e-02,1.493987155012418633e+01
2.196100000000000136e+02,-1.264367656155085951e-01,1.844681579126907778e-01,9.725934467589027577e+00,-1.230415194536644691e-01,-2.534961990600775317e-01,1.479028086357713079e+01
2.196200000000000045e+02,-1.015217439112876402e-01,7.307843419456752643e-02,9.740651409727286492e+00,8.409574995615294590e-02,2.647102258117710605e-01,1.523370422417602299e+01
2.196299999999999955e+02,1.305708903215325456e-01,2.216536661844057954e-01,9.701976249035940469e+00,2.420469164574638385e-02,-3.809182603410041917e-02,1.486782302933115396e+01
2.196399999999999864e+02,-2.459474731211473419e-01,1.362558310465346034e-01,9.824569657196526862e+00,-4.559574934788169359e-02,-7.645981980456019456e-02,1.501453105012847900e+01
2.196500000000000057e+02,-6.410085435384932362e-02,2.750414748914340457e-01,9.874905942153901606e+00,1.059410639165632023e-01,7.071871596885330458e-02,1.496089979651465285e+01
2.196599999999999966e+02,-1.420802522891214531e-02,2.341124167258080147e-01,9.782605700321651554e+00,2.224632130024260523e-01,-7.788027399650432857e-03,1.471194933459773679e+01
2.196699999999999875e+02,3.530078126329339733e-02,5.446066082458296542e-02,9.727405408604591130e+00,-1.431026739729640285e-01,-1.398370839800083809e-01,1.517078902387621930e+01
2.196800000000000068e+02,-4.778064742002134657e-02,4.061246658924963504e-02,9.733521542124575987e+00,3.227098154489021348e-02,2.633154170954732920e-01,1.470913972317420182e+01
2.196899999999999977e+02,-1.125760739920064202e-01,1.874272568754336565e-01,9.867180450859905250e+00,-1.428969743700861383e-01,2.787290137152382274e-01,1.496103621988819654e+01
2.196999999999999886e+02,1.226280413417705495e-01,1.484763883738109413e-01,9.595489811644343447e+00,1.604788818568680109e-01,-1.803328039300967633e-01,1.410945568258188487e+01
2.197100000000000080e+02,1.053257794663592373e-01,2.940704877408029105e-01,9.785619215728004860e+00,1.998684834800611154e-01,-1.710568454082844747e-01,1.501946771588344198e+01
2.197199999999999989e+02,-3.792898135861347275e-02,2.056533844723104631e-01,9.723839128180351565e+00,-1.158948433749921736e-01,4.100913460558286427e-01,1.516935219850363659e+01
2.197299999999999898e+02,-1.790671012110520710e-01,1.208913210414959416e-01,9.722298276228707792e+00,9.497742030389651202e-02,-2.021882413080774432e-01,1.504778361093518235e+01
2.197400000000000091e+02,3.061680987644577884e-02,3.348146376523774004e-01,9.886298614514281269e+00,2.209728013225463750e-01,1.042801501279785603e-01,1.510400518533004011e+01
2.197500000000000000e+02,1.817505407585961671e-02,1.237937130581847067e-01,9.796191126271425631e+00,-1.559627235887338648e-01,4.211517191387980502e-02,1.502235898479361431e+01
2.197599999999999909e+02,-6.670587240056953526e-02,3.281033466017724276e-02,9.726442746960008989e+00,-1.609640248067176760e-01,-4.240793686379925459e-02,1.539332275332660771e+01
2.197700000000000102e+02,-1.955063042721507105e-01,1.460883846837677802e-01,9.843686492938426014e+00,3.399486074998179369e-02,-1.719724795421539443e-01,1.505391994416010171e+01
2.197800000000000011e+02,-2.715542127705206782e-02,8.609373709464260283e-02,9.854354706602691749e+00,-2.670479409239349677e-01,1.209681529764830704e-01,1.389165785983036017e+01
2.197899999999999920e+02,7.665557959581434377e-02,2.653977225043143151e-01,9.920981686285049506e+00,8.401421047465747194e-02,1.022629862221753894e-01,1.425053754925166771e+01
2.198000000000000114e+02,9.171673357383650083e-02,5.373682999112414094e-02,9.822581304160532767e+00,6.505076458456335309e-02,-2.757833356813948478e-01,1.553455173466682027e+01
2.198100000000000023e+02,-4.418459717668676671e-03,2.515722714549686878e-01,9.758211556219238858e+00,2.516112627907020061e-01,-1.849256745742704766e-01,1.417808338688567460e+01
2.198199999999999932e+02,-6.234734170904759204e-02,1.406169691155334522e-01,9.971692801869679101e+00,3.104337738083204901e-01,5.644167777729648672e-02,1.476585743657855332e+01
2.198300000000000125e+02,7.344634653250865786e-02,8.185902311572040846e-03,9.959863843846145315e+00,-1.178777855491142390e-01,-1.020365683554892294e-01,1.502839812635611949e+01
2.198400000000000034e+02,-1.137010370633178696e-01,2.093009428633904323e-01,1.005380098779457043e+01,2.610935483293851458e-02,2.969340535186248964e-01,1.453747873865381735e+01
2.198499999999999943e+02,-1.354788517337215947e-01,2.853173256396199231e-01,9.924843932403184965e+00,-1.784028848460317632e-02,7.756142546222612177e-02,1.442471134845737346e+01
2.198600000000000136e+02,-8.846044585236077437e-03,1.769152925600823989e-01,9.875876688322838604e+00,6.925671592625028128e-02,-4.417467096669577299e-03,1.482336463607756372e+01
2.198700000000000045e+02,1.546447015714926820e-01,1.475891997884073714e-01,9.569865796649883904e+00,-2.552209192724941289e-01,1.155636705871704584e-01,1.560232831445206081e+01
2.198799999999999955e+02,1.583952166671473150e-01,3.525363455883762098e-01,9.972216538196512658e+00,1.390899240526471681e-01,2.955855026964606669e-01,1.570849206829005240e+01
2.198899999999999864e+02,-1.317777837929614004e-01,2.866597618677001469e-01,9.810591317116651666e+00,1.665499675352360986e-01,-1.590797294698973186e-01,1.498811148266539917e+01
2.199000000000000057e+02,-4.372578832197198534e-02,2.437913252266138420e-01,9.790279619485962925e+00,-5.656213239356673583e-02,1.392325855045673799e-01,1.458672338198773488e+01
2.199099999999999966e+02,2.433895780053542124e-01,-5.107554085100193819e-02,9.855661293283977997e+00,-4.068078770423892987e-01,-3.009050009439372397e-01,1.316988121548643598e+01
2.199199999999999875e+02,-6.884183219332114245e-02,6.354885193788116504e-02,9.745443442088117081e+00,-1.239832875437676396e-01,5.131924548019789478e-02,1.196785205529194407e+01
2.199300000000000068e+02,1.619739082384313578e-01,9.530393815465315610e-02,9.914477155584172863e+00,-8.965206480347054363e-02,-2.835491076943807420e-01,1.012281278330999612e+01
2.199399999999999977e+02,9.760105643937562470e-02,1.463122414517082914e-01,9.652806651262338278e+00,-2.017545457839769671e-02,1.084705229578150631e-01,9.081950046374387853e+00
2.199499999999999886e+02,1.190858109671273646e-01,1.729341419399533231e-01,9.910044505308610141e+00,-3.628289414799820006e-02,-4.360411978512898634e-01,7.740300418326993004e+00
2.199600000000000080e+02,-4.458557988331543487e-02,-3.748081130999260380e-02,9.866429529759274786e+00,-2.916850731948940068e-01,9.792386094780274053e-03,6.117519712193772996e+00
2.199699999999999989e+02,-4.162602635496501918e-02,1.079482948327721847e-01,9.810582772227446569e+00,3.502724010078152317e-02,1.789685704035803571e-01,3.771038598540746634e+00
2.199799999999999898e+02,-9.106161977045666711e-02,-8.311270859698603741e-02,9.940940009848576508e+00,1.646394235613679591e-01,1.819768568767595740e-01,2.452649163988825265e+00
2.199900000000000091e+02,7.988314342734842421e-02,8.775752327569089073e-02,9.880291573940125360e+00,-1.114026739466040666e-01,-1.779130151865462584e-01,8.949670470595175731e-01
