t,ax,ay,az,gx,gy,gz
6.320000000000000284e+01,-5.996636543589989321e-02,-6.290187304506678588e-03,9.829192659219081918e+00,-9.152484652539960575e-02,1.601171300897525906e-01,8.890204774430571222e-01
6.321000000000000085e+01,-1.964032157970909687e-01,-1.006007797041261753e-01,9.942138094143750493e+00,8.437044299257373536e-02,3.864157842833189360e-02,1.841772110796701944e-01
6.321999999999999886e+01,-1.732873651645629731e-01,-3.993133705300853931e-02,9.845916036188810949e+00,-1.636967194334686959e-01,-2.604145718292185108e-01,1.081084311128448494e-01
6.322999999999999687e+01,1.901120731267607333e-01,1.039261285967365833e-01,9.786349939361885575e+00,-5.434669773921412678e-02,-1.343865467321505025e-01,-3.224159113837610224e-01
6.324000000000000199e+01,1.573599639232585168e-01,8.549697684005588827e-02,9.839530334130685674e+00,8.018828118086923640e-02,2.672758434229731139e-01,-1.930667704952378494e-01
6.325000000000000000e+01,-5.757777549240405274e-02,-3.535123771065672854e-02,9.705451657034654289e+00,-2.101332977651775361e-02,2.657427941786964787e-02,-7.715763038628821180e-01
6.325999999999999801e+01,9.079991561824574120e-02,5.851713361445372297e-02,9.768293118804283637e+00,2.186821255625861701e-02,2.146933361756915848e-01,-6.994424864577147849e-01
6.327000000000000313e+01,5.064207749970311284e-02,9.303911237736791837e-03,9.820592409327399963e+00,1.485904955442942654e-01,4.042468588129161100e-02,2.786502757156418542e-02
6.328000000000000114e+01,6.242879566488419851e-02,-3.297389147767201822e-02,9.966446480371430994e+00,-2.777415301977891882e-01,4.284871190733811896e-02,1.286700339189747987e-02
6.328999999999999915e+01,-1.425177764500705491e-01,1.246655741279924651e-01,9.898377533663314409e+00,2.597676631447300433e-01,-3.698823414430802564e-02,7.723976864481308935e-01
6.329999999999999716e+01,-1.808177922530160020e-01,-8.948543600172281787e-02,9.836117429289153336e+00,-1.366254848082200379e-01,-3.440032845463396605e-01,2.162544069144219927e-01
6.331000000000000227e+01,1.182594359069889106e-01,3.065299766416019339e-02,9.861267780418135231e+00,-1.782524852387686876e-01,9.575650109010580557e-02,-1.147777885356576488e-01
6.332000000000000028e+01,-1.979298303036830242e-01,-1.663412330893350166e-01,9.927583872551299038e+00,-2.092310789096228293e-02,7.102955685104495043e-02,-3.579775255261902212e-01
6.332999999999999829e+01,-1.481935413825152294e-02,3.605077504604924793e-02,9.804818289153734767e+00,-1.607180065083790299e-01,2.760645774315974299e-02,-3.858300519938116513e-01
6.334000000000000341e+01,-3.677023262177871177e-02,-6.600427181485306327e-02,9.904840470154459453e+00,-4.431169135599183351e-02,1.890292483830296189e-01,-5.543865449480151614e-02
6.335000000000000142e+01,-4.601509616764085792e-02,-3.817126281139746058e-02,9.770994490814938871e+00,-1.440095484566986384e-01,1.782981901299957872e-01,1.110632831914082214e-01
6.335999999999999943e+01,3.144508222906568923e-02,-2.911539815038180143e-02,9.843180741879530515e+00,-6.584592736102343191e-02,-1.241341772199554550e-01,-2.039694523045720020e-01
6.336999999999999744e+01,-6.775924297784516326e-02,-2.218516572323436797e-01,9.920102516197003339e+00,2.118270696801632935e-01,-1.999703607860648935e-01,7.407020942612672076e-01
6.338000000000000256e+01,3.957354624650479685e-02,-1.614096216914195359e-01,9.912288674730556082e+00,2.164087296082415068e-01,7.841175003435695012e-04,-3.125449133304372684e-02
6.339000000000000057e+01,1.411554146911949553e-02,8.301192686650875341e-02,9.635741951262131622e+00,-5.176769452880066735e-01,2.862219172773942666e-01,8.377139056299320874e-01
6.339999999999999858e+01,2.098732354050425186e-01,1.045932560655662806e-02,9.835097299745017452e+00,-1.093485556747882809e-01,2.365331112375088085e-02,-1.056819698670212332e-01
6.340999999999999659e+01,-1.385409391818129554e-01,1.458361183280161288e-01,9.884608023717202485e+00,-4.858305755736463255e-02,2.830631067740889753e-02,9.969604837875069014e-01
6.342000000000000171e+01,2.926898390482669463e-03,-1.367914888470793400e-01,9.765173747817604166e+00,-1.557740569075635184e-01,-1.162771233482898375e-01,-4.097401957168830267e-01
6.342999999999999972e+01,4.313450998777634826e-02,8.511971837090934190e-02,9.908095640860148379e+00,1.573890154023262489e-01,-1.438742389887923412e-01,-9.735503108031469399e-02
6.343999999999999773e+01,-2.564025555322960864e-02,4.606896967041463481e-02,9.708422993822106051e+00,-3.460136500223881528e-01,-2.651408916116872530e-02,3.963473535528252434e-01
6.345000000000000284e+01,-1.337075107887838177e-01,1.164512594238072407e-01,9.723593038532513333e+00,2.132344624535480460e-01,1.212216436085287452e-01,-2.403950501887092139e-01
6.346000000000000085e+01,1.257102780655194596e-01,-1.075823336067958415e-02,9.530413650140729942e+00,1.809576274594915657e-01,3.805953960593363799e-04,-6.683067138741292934e-02
6.346999999999999886e+01,3.369343301440520799e-02,1.146375681543621364e-02,9.774038463383421416e+00,3.038324651766326906e-03,-2.295974421400095444e-01,-5.492278218415020952e-01
6.347999999999999687e+01,-1.266896712926594004e-01,-8.774926269415998792e-02,9.595674689617778697e+00,-5.472213563003400921e-02,9.290974306201227328e-02,-8.652189145512635404e-01
6.349000000000000199e+01,4.386679625582599884e-02,-2.705981466853923587e-02,9.929921347999073333e+00,8.429319365982229639e-02,-5.596361747398495741e-03,-2.306161519669361337e-01
6.350000000000000000e+01,1.701566070052856761e-01,-4.913541554170684778e-02,1.000525644781305701e+01,-5.252654818159915862e-02,-1.300384247916334390e-01,6.804673933810935216e-01
6.350999999999999801e+01,-3.631593341592001013e-03,-1.325495780891593478e-01,9.717450959916313025e+00,-1.823801443262950683e-01,4.161896877375426129e-01,2.005733318878431815e-01
6.352000000000000313e+01,-2.212669470562166171e-04,1.361642807130289227e-02,9.791254516782283090e+00,2.135641871385704493e-02,2.718140991281536301e-01,-8.774298313259411009e-01
6.353000000000000114e+01,1.568005031043319397e-01,9.419237626943931241e-02,9.820734836862769157e+00,1.152567975905910008e-01,-3.099676753671881668e-01,-1.342106285224198836e-01
6.353999999999999915e+01,-9.703839817512532884e-02,1.179916817663573952e-01,9.724976942922518575e+00,-1.934690291885983737e-01,4.053512887486085403e-01,3.013230330012085512e-01
6.354999999999999716e+01,1.727552042620681683e-01,-8.106121458500833987e-02,9.850970221363152035e+00,1.904586663673744074e-01,7.827877185587600595e-02,2.252615896801185014e-01
6.356000000000000227e+01,9.729110703682369854e-02,-3.640980027726448999e-03,9.793088763676131236e+00,1.838012410278257458e-01,1.748896815942511673e-01,-4.005084441142532370e-01
6.357000000000000028e+01,-9.242189639800153789e-02,-1.346205404962263867e-02,9.674385455192300753e+00,7.261582641968678670e-03,2.109594860975468056e-02,-3.765109596303484740e-01
6.357999999999999829e+01,-6.682689998441153356e-02,1.474599580867303750e-01,9.850823492553040239e+00,-5.156721991700410901e-02,1.326577889054176423e-03,-2.748932022575563128e-01
6.359000000000000341e+01,-5.248128336822896478e-02,1.786294973956421284e-01,9.862157061061340713e+00,-1.041057210980846776e-01,-1.097127055266700763e-02,-1.007727364996725411e-01
6.360000000000000142e+01,-1.833564213987090019e-01,-1.304878074076933625e-01,9.604847962498197944e+00,-1.025641194510209103e-01,6.061399851327221866e-02,-8.843583881848495754e-01
6.360999999999999943e+01,2.604717490708809494e-02,4.864828234400550566e-02,9.808567536449526614e+00,-3.377058606071024760e-02,-1.568709039756999157e-01,-1.943072008496922812e-02
6.361999999999999744e+01,-8.789470032478534367e-02,5.311215011709827238e-02,9.767426253385071533e+00,-2.757589107171140030e-01,-2.092473494535481149e-01,6.376368450668443710e-01
6.363000000000000256e+01,2.965513214313054285e-02,-2.005043833100161876e-02,9.837689978184510409e+00,-3.287246208772722222e-01,4.699913521324664001e-02,-4.514932381306222542e-01
6.364000000000000057e+01,-1.290943250325216896e-01,-1.262921491777678207e-01,9.943203804500930332e+00,3.991684218666384509e-02,-1.136937823696800021e-01,-2.597849397743599575e-01
6.364999999999999858e+01,9.230132368944994614e-02,7.054293026098833186e-02,9.926593810007167562e+00,-4.373938189776642727e-01,6.789019634898781422e-03,-4.416052689143121213e-01
6.365999999999999659e+01,7.376259301305024274e-02,1.216243591416061309e-01,9.912945007538242592e+00,-1.743710756755403532e-02,2.329677479211607685e-02,-2.471195866439503952e-01
6.367000000000000171e+01,-7.058790140602151653e-02,-5.469797734916517773e-02,9.824632066403871988e+00,1.713209565483416186e-01,1.612127194804198749e-01,1.316084943077802938e-01
6.367999999999999972e+01,3.596491578821158636e-02,1.196390273411878785e-01,9.783663533475088769e+00,5.946626913951428423e-02,-7.125746212655943712e-02,-1.003361631041275848e+00
6.368999999999999773e+01,8.292055930957989082e-03,4.033929107385228214e-04,9.604819588835272981e+00,-1.309121585723038439e-01,-1.186706451161873566e-01,-3.366947970552556235e-01
6.370000000000000284e+01,1.482299486152911794e-01,1.421937318192722788e-01,9.890539973745356761e+00,-1.226548506641762099e-01,-8.639162897235871941e-02,-5.477473718487799736e-01
6.371000000000000085e+01,-1.032478967894872313e-01,1.419941644566711791e-01,9.906141747024706845e+00,-1.511281186716725844e-01,-1.089213395316345756e-01,-4.647395563538852525e-01
6.371999999999999886e+01,-1.522979784941467553e-02,-2.355644544851156433e-03,9.642997971322747830e+00,2.629476519480597463e-01,9.001268885004798381e-02,-4.572535113575709742e-01
6.372999999999999687e+01,-6.406836367077731187e-02,4.173613608724076329e-02,9.855777067078394182e+00,-1.139374608497385338e-01,-1.113107693203394394e-01,1.708098251741131390e-01
6.374000000000000199e+01,4.481819710016778611e-03,-7.024186041172227057e-02,9.912705119427647205e+00,-1.717345913471048924e-01,3.373759829122210396e-01,-3.399096649731217501e-01
6.375000000000000000e+01,5.332736027835933978e-02,-1.623526113839980356e-01,9.722391947433042247e+00,5.586530673389974999e-02,-1.858432234009456396e-01,5.183959139061703469e-01
6.375999999999999801e+01,-6.518073780737090872e-02,2.507292730327206898e-02,9.889523710365692111e+00,3.535732585284536156e-01,-9.542282275186514395e-02,5.389533051663063512e-01
6.377000000000000313e+01,-3.641062213892124616e-02,-1.466289521150436204e-01,9.694283920885727213e+00,7.485596348581603776e-02,-3.714153779388966736e-01,-2.273472897872505227e-01
6.378000000000000114e+01,9.660407980573626485e-02,2.093079219896125387e-01,9.763805192997168092e+00,-2.034750813817400375e-02,-1.315595698718712292e-01,1.175375194477035423e+00
6.378999999999999915e+01,1.357324661926442855e-01,1.138488566395545326e-01,9.692957917231698417e+00,-1.163027981146911582e-01,3.332229661896111278e-02,-6.406201994797900978e-01
6.379999999999999716e+01,4.935160352028785530e-02,-1.515728681842713234e-02,9.891299997365710084e+00,-2.144057361781404047e-01,1.497547278092460112e-02,-1.350525130495612736e+00
6.381000000000000227e+01,-1.379630987431590232e-02,2.667296127351675983e-01,9.890858795808949111e+00,2.233160496138298923e-01,-1.074426350916494050e-01,3.499750029882848362e-02
6.382000000000000028e+01,-2.330969210371493239e-02,-6.303348033890365798e-02,9.756807950898593873e+00,1.274143218192495819e-01,1.493162939689503810e-01,-2.562321466306441420e-01
6.382999999999999829e+01,5.481263287272902102e-02,-3.924417668825461863e-02,9.685182766833955625e+00,-3.226381590534930788e-01,-9.631148927077588795e-02,8.857608824478886700e-02
6.384000000000000341e+01,2.277670014048717440e-02,-4.045310282602061769e-02,1.007402548812347298e+01,1.464942023344847390e-02,-2.503178987974966629e-01,3.978607260819871372e-01
6.385000000000000142e+01,-1.648975837891303309e-01,-6.399059506240607938e-03,9.817573673674948154e+00,-3.140164052929144134e-01,7.831704118064330977e-02,5.719065886085057393e-01
6.385999999999999943e+01,5.723852323079027526e-02,-3.100295897324563399e-02,9.804754068921360144e+00,1.366530009448806982e-01,3.762042415152393876e-02,-4.567461726199367744e-01
6.386999999999999744e+01,-8.605697894225622369e-02,4.565618568698598390e-02,9.730895068607365417e+00,2.368079539371964470e-02,-8.026915642185582234e-02,-4.555236625534662687e-01
6.388000000000000256e+01,-1.416936408475652220e-01,-9.987707875020795933e-02,9.712417512633688688e+00,-1.484204497799038458e-01,-4.111212976644687545e-02,3.928323914212443757e-01
6.389000000000000057e+01,-1.668344888108725943e-01,1.279173625244848372e-02,9.863517053011236158e+00,-3.630945584467499820e-01,9.838792610787885917e-02,-4.753270229704113503e-01
6.389999999999999858e+01,-2.161043711833192382e-02,-5.425312358363637566e-02,9.845308412092418138e+00,2.645421402150467394e-01,3.272338171949598640e-01,7.193507558459852902e-01
6.390999999999999659e+01,-1.016524362182602420e-01,-1.039912659399148259e-02,9.758158447168220562e+00,-1.620191470618613794e-01,-9.384989729240311718e-02,-4.283165509193549436e-01
6.392000000000000171e+01,-2.326361559739197615e-01,-1.416248113139486620e-01,9.893385935551476607e+00,-1.756738049958946890e-01,3.486550902217261383e-01,-2.074997182965154785e+00
6.392999999999999972e+01,-3.584555068368108083e-02,-1.364520691352205661e-01,9.788646290274684247e+00,-3.916928511760168208e-01,2.675705921197617521e-01,-4.000414625507997535e+00
6.393999999999999773e+01,-4.905708348858658918e-02,1.458507580968317063e-01,9.873730867063196470e+00,-5.152826598310227685e-02,-9.997691063402468215e-02,-6.433328865154845921e+00
6.395000000000000284e+01,-1.499011146583800573e-02,-1.754533427591793426e-01,9.849345463534831424e+00,-1.477233456372622003e-02,-5.982256703931570357e-02,-7.391389682916452486e+00
6.396000000000000085e+01,-6.288979540423771109e-02,-4.765327713489096728e-02,9.794518183292218794e+00,-4.522993115767633410e-01,5.158073397475413380e-01,-9.852247756401013135e+00
6.396999999999999886e+01,1.829329663527278216e-01,-1.703474002763695760e-01,9.884939539501194972e+00,1.795470692783682765e-01,-2.687872784900848799e-01,-1.146595819764704238e+01
6.397999999999999687e+01,5.173372946836405500e-02,-2.350672856596773830e-01,9.920009508518132790e+00,5.387628280427223665e-02,-1.144357737035186506e-01,-1.185829244674664729e+01
6.399000000000000199e+01,-4.996133236214773260e-02,-1.435894352012732911e-01,9.911773161657972508e+00,-1.983430618441854032e-01,-1.303474877927019993e-01,-1.402044249575930657e+01
