t,ax,ay,az,gx,gy,gz
4.078999999999999915e+01,-1.094364797550143459e-01,1.159765324910547457e-01,9.848755448305897886e+00,2.409009494254102379e-01,5.379879455305209834e-01,1.517280197754372573e+01
4.079999999999999716e+01,-5.881543569877504402e-02,1.409947497805721095e-01,9.757735308713396449e+00,-1.157123488680906753e-01,-3.022636618392564034e-01,1.462923149002172174e+01
4.081000000000000227e+01,1.418238782906290074e-01,1.358922622600428898e-01,9.794628559023442094e+00,3.508645529228581195e-01,2.482301912436157484e-02,1.586667675034741976e+01
4.082000000000000028e+01,-1.084210079779812513e-01,4.251381985378395456e-02,9.652819623927143766e+00,1.939910925887492477e-01,-1.857314456774751543e-02,1.492505046108131772e+01
4.082999999999999829e+01,2.116746821479650598e-01,2.543888326192846328e-01,9.779585355449636808e+00,2.159445545398496480e-01,2.572575612332578809e-01,1.471447912262693336e+01
4.084000000000000341e+01,-8.406074274696438697e-02,1.220803910069619830e-01,9.686604934174104287e+00,-1.436974365018460764e-01,-2.986408138344441299e-01,1.440601367113069031e+01
4.085000000000000142e+01,7.499499706512455233e-02,7.985323418886280944e-02,9.809363797312734334e+00,1.942891981039124305e-01,-3.029111688135847913e-02,1.513201394236449815e+01
4.085999999999999943e+01,-1.452512942549885611e-02,5.965524238965427273e-01,9.860302614485393136e+00,3.804075027070079051e-01,1.699032640557366358e-01,1.598327989031838925e+01
4.086999999999999744e+01,-3.205595825261855353e-02,5.136244409987059112e-02,9.815304925886048082e+00,2.286247013299051167e-01,-5.953600090907286424e-02,1.502227967935684383e+01
4.088000000000000256e+01,-1.271420777125135959e-01,1.578880670138982645e-01,9.902807772989108415e+00,4.406143110825915254e-01,-1.072347545749486736e-01,1.529724068918358348e+01
4.089000000000000057e+01,-9.839298275123808946e-03,-6.338373355680199106e-02,1.000779936732218722e+01,1.081396896253527251e-01,1.333469061798776278e-01,1.561705039414553120e+01
4.089999999999999858e+01,-1.158285996366004433e-01,2.920966519211319334e-01,9.798942126398420882e+00,2.786447102703775158e-01,3.475656178436992705e-01,1.501177634575820008e+01
4.090999999999999659e+01,-1.681577099767440631e-01,1.384220386425552562e-01,9.817627327169837770e+00,1.194753668687924125e-01,-1.055727097358164293e-02,1.464368574053733774e+01
4.092000000000000171e+01,1.195986782174491246e-02,2.483586575898044935e-01,9.744466299740677684e+00,-2.780190294168132792e-01,2.216379086611157678e-01,1.424558512796600063e+01
4.092999999999999972e+01,-6.354231068357553414e-02,7.233956922453674276e-02,9.620882716369578702e+00,2.407173715932591218e-01,-2.098769181183173238e-01,1.480677041734683996e+01
4.093999999999999773e+01,1.684348516124981043e-01,5.099236421762770588e-03,9.823529721443506446e+00,-1.430506742447982538e-01,1.382721097375251562e-02,1.508333070519378261e+01
4.095000000000000284e+01,1.000021715092822422e-01,9.206790986545014543e-02,9.878221374198782101e+00,-2.794904535459357686e-01,-1.830587652323947268e-01,1.558598806154719085e+01
4.096000000000000085e+01,1.697432181336769874e-01,3.012145367507148563e-01,9.811756478702882589e+00,-6.601214274515662672e-02,-1.258206289378482612e-01,1.521286529805748700e+01
4.096999999999999886e+01,-6.808829045078987341e-02,2.243856799979158656e-01,9.728155741997211337e+00,8.408695931616441688e-02,-3.004354427054943891e-02,1.510967218687319047e+01
4.097999999999999687e+01,1.361377401312873631e-02,5.021709609481089798e-03,9.713187528634154688e+00,-1.082359543364322801e-01,-1.017832006759624291e-01,1.517879098215656164e+01
4.099000000000000199e+01,-2.620670959681052903e-01,-7.528997738191342548e-02,9.683588769217136516e+00,2.329180211798970446e-01,1.595479801688826360e-01,1.479292951585097526e+01
4.100000000000000000e+01,-2.818023806867239744e-02,1.345447670429122389e-01,9.799287926951866012e+00,-1.764310460240535727e-01,6.451529637216414648e-02,1.398285899454050352e+01
4.100999999999999801e+01,9.849834802468097200e-03,2.759038528871438078e-01,9.709817006876326317e+00,8.406380567444336760e-02,-2.606427533616891279e-01,1.557243044315597480e+01
4.102000000000000313e+01,1.540480777017720973e-02,9.081496180840982479e-02,9.925786826432410948e+00,-2.552421868921762871e-02,-4.601478894885802085e-02,1.567140888575235458e+01
4.103000000000000114e+01,-4.236841054167292918e-03,2.742977023999387809e-01,9.885607947947091745e+00,-2.307791191824469512e-02,-2.010070757201631586e-01,1.521790668084220854e+01
4.103999999999999915e+01,6.659257175166802961e-03,1.793636924050953374e-01,9.914825414923603475e+00,9.647042406462398578e-02,-3.692314509871223727e-02,1.579302883282305103e+01
4.104999999999999716e+01,-2.713242634163411937e-01,3.419435128406235203e-01,9.937600023291704332e+00,1.654405807364668357e-01,2.995711508833497766e-03,1.563819527182547908e+01
4.106000000000000227e+01,2.562218360819781479e-02,9.879537051417928983e-02,9.772154905275643344e+00,5.857814153155845027e-02,-5.218594373951921522e-02,1.489735077264104923e+01
4.107000000000000028e+01,4.834398919300388064e-02,1.606622664411923307e-01,9.893357074269845342e+00,1.786509794382831195e-01,-9.132759379046669068e-02,1.436184535820325614e+01
4.107999999999999829e+01,1.338025402628851002e-01,1.011473139433338025e-01,9.784259805338827221e+00,8.431585679720027260e-02,7.040816391601954771e-02,1.521269918112870734e+01
4.109000000000000341e+01,3.687380592769306381e-02,2.652017376465773957e-01,9.785457558025527192e+00,4.365818841689275698e-01,-3.100447205769087389e-01,1.477850872378103197e+01
4.110000000000000142e+01,-1.307370667132382383e-02,2.257484123675616294e-01,9.789824069361898751e+00,-3.911235879377856772e-01,9.871130093785135395e-02,1.570235218933779819e+01
4.110999999999999943e+01,1.104941922230971846e-01,-3.176936012086156724e-03,9.727867269990987609e+00,-7.203614929312782689e-01,-2.433721123324676938e-01,1.490788992045754746e+01
4.111999999999999744e+01,-2.357334224599478834e-01,2.358841193994002938e-01,9.796012647620843339e+00,8.987690802306186333e-02,3.546856878527670370e-02,1.546330263697306329e+01
4.113000000000000256e+01,-5.149485306271437551e-02,1.776591767630456009e-02,9.797490872041755949e+00,-2.812973181753791185e-01,4.217043217792926929e-02,1.451847154781856908e+01
4.114000000000000057e+01,-7.658099800587114814e-02,7.554368479131426395e-02,9.877108553058214113e+00,3.345222330857987314e-02,-1.131922931091990520e-01,1.349876256996925150e+01
4.114999999999999858e+01,-3.452179983131103969e-03,2.412357640714021256e-01,9.787983100651425517e+00,4.727822388647738572e-02,6.485889853344051215e-02,1.444915444985906738e+01
4.115999999999999659e+01,-2.198692812229164906e-01,4.122041684340244094e-02,9.755749440228882463e+00,-3.237095684054133171e-01,-1.505852058568241114e-01,1.460511937083046696e+01
4.117000000000000171e+01,1.319635662243718588e-01,1.295250416633837443e-01,9.879042216319009029e+00,9.078390646464830349e-02,-2.332774347478629162e-01,1.564075225539289882e+01
4.117999999999999972e+01,-2.498098996842459951e-02,2.426052544987413739e-01,9.719567230219501752e+00,1.293995344350444276e-01,-2.551884927664343494e-01,1.507533607608828952e+01
4.118999999999999773e+01,3.187966911589339147e-02,2.081872490131630171e-01,9.796730269801864566e+00,-1.017494836747801640e-01,2.062161695014499974e-01,1.413333149365009866e+01
4.120000000000000284e+01,2.230912250598942118e-02,2.023391117434926445e-01,9.876067349714370280e+00,2.683048986131258418e-01,6.224733041640174991e-02,1.482653093083869500e+01
4.121000000000000085e+01,1.262489894876950292e-01,2.458462948713017182e-01,9.892471855307293893e+00,-3.107776193483895999e-01,1.261355145846726755e-01,1.506325487747545822e+01
4.121999999999999886e+01,-1.861950134874047480e-01,2.973688930781454021e-01,9.941578136062078741e+00,-5.852243158927196431e-02,2.388174373363944891e-01,1.514721072787416212e+01
4.122999999999999687e+01,1.123211654698123840e-02,4.261376007771429386e-02,9.849992376363561064e+00,1.713112728930528128e-01,-2.712665967488571694e-01,1.419527898767218410e+01
4.124000000000000199e+01,1.146178260704860397e-01,1.999912284014849773e-01,9.821509279523878533e+00,1.872523369792374326e-01,-1.555775423786135425e-01,1.396657395570397853e+01
4.125000000000000000e+01,-9.798644672069135170e-03,2.631185247802761973e-01,9.969185559960829224e+00,1.260859610459321434e-01,9.933094172501634456e-02,1.583053043933154491e+01
4.125999999999999801e+01,-9.512693931383019164e-02,2.434520122868474856e-01,9.726836036809176633e+00,-6.584584383292123311e-02,9.833133388930226371e-02,1.541171256369864295e+01
4.127000000000000313e+01,-6.038901156557857641e-02,1.507338923834356248e-01,9.888498096420361705e+00,-5.070282242467816225e-01,1.391191309954127320e-01,1.565084014186926886e+01
4.128000000000000114e+01,-3.929420018064045533e-02,1.449564559553312149e-01,9.822857079257994783e+00,-1.604350590530037035e-01,-2.194594573125783210e-01,1.468538443685124406e+01
4.128999999999999915e+01,-7.210500295229892165e-02,2.490997956013508430e-01,9.594707182238838783e+00,1.235771072363454348e-01,1.297301864411900922e-02,1.566203622989902122e+01
4.129999999999999716e+01,-1.528111170673594234e-02,1.880691692507365509e-01,9.969803922751221847e+00,2.601022974975324420e-01,-9.675732490654022355e-02,1.527741684168360159e+01
4.131000000000000227e+01,1.508247403185001834e-01,2.760797549029443410e-01,9.729090030017404800e+00,2.243573551869768312e-01,2.114199559800874484e-01,1.515206866837786492e+01
4.132000000000000028e+01,-5.973647655374826615e-02,1.776536539227190070e-01,1.009487413431345537e+01,3.127053470073091757e-01,2.562104850325114813e-01,1.379219824927331928e+01
4.132999999999999829e+01,-4.876739742789992088e-02,1.293111191396509874e-01,9.825357990970674749e+00,4.012596535818369614e-01,9.665540156174887154e-02,1.547892990020928572e+01
4.134000000000000341e+01,4.597805840503131625e-02,-9.680093694161617801e-03,9.714643792290859281e+00,1.341255037665774544e-02,6.422459235950156442e-02,1.534695497325673053e+01
4.135000000000000142e+01,-1.748203639638759924e-02,1.436230158716163274e-01,9.890194366994913722e+00,4.893328560191268634e-02,-1.971101849235930570e-01,1.507204461237802740e+01
4.135999999999999943e+01,-1.329185133344882586e-01,4.357124566055141368e-02,9.771322250093193773e+00,-8.499331309437897775e-02,-1.821799700130666000e-01,1.499238926575448438e+01
4.136999999999999744e+01,-6.118843777902161635e-03,-1.628777000919856555e-02,9.816514221111223293e+00,-1.317354348336221281e-01,1.903586130419693268e-01,1.529679204173312002e+01
4.138000000000000256e+01,-9.889143239692550075e-03,8.011216034608249770e-02,9.865617565933805011e+00,-1.771131329890613670e-01,8.857560475488805707e-02,1.434330417668869018e+01
4.139000000000000057e+01,9.756783454381533216e-02,2.369778988053311553e-01,9.820758437076788638e+00,-1.355272083707117214e-01,-1.205572553211886611e-01,1.571065002259020815e+01
4.139999999999999858e+01,-9.721523982026614163e-02,1.424815948359227646e-01,9.811352971131491074e+00,1.281330173316333303e-02,1.225964756008760814e-01,1.496723280285684332e+01
4.140999999999999659e+01,9.823194827554433683e-02,1.844843446364469730e-01,9.760104408941119303e+00,2.243050889742236320e-01,-3.143208247036158309e-01,1.386957850970784101e+01
4.142000000000000171e+01,-9.783081209994354266e-03,2.340265809436612998e-01,9.594550856273068362e+00,6.370300006910648016e-02,-7.876729003047405753e-02,1.566355667362821258e+01
4.142999999999999972e+01,-1.107941670914995846e-01,1.630859047119970207e-01,9.848752717343963070e+00,-2.836825924789562053e-03,5.794843800856520899e-02,1.497247518858147863e+01
4.143999999999999773e+01,-1.308778312076928907e-01,9.786541875121089473e-02,9.866596296439034575e+00,-1.213825357197545821e-02,3.154802654797670969e-01,1.586256892731587165e+01
4.145000000000000284e+01,1.934388527908529887e-01,1.220558035854777956e-01,1.001566935660973989e+01,-1.114067064500796622e-01,3.572681712811386773e-02,1.446324362178332912e+01
4.146000000000000085e+01,-1.599160228354402913e-02,2.439096451070028038e-01,9.893387119406565233e+00,-7.162686536324079645e-02,1.962181504902401619e-01,1.535598604924906851e+01
4.146999999999999886e+01,9.365041167304881398e-02,1.640453990183317334e-01,9.708112983914720218e+00,-2.816908167826765452e-01,-9.713283639584482931e-02,1.542762972337337857e+01
4.147999999999999687e+01,-1.708119394608129671e-01,-8.775569624702875271e-02,9.605293466822693915e+00,-3.909531320500105739e-02,-1.462139024521590669e-01,1.538458636724224782e+01
4.149000000000000199e+01,2.637694887963901169e-01,1.313518352927418587e-01,9.576752178100363722e+00,-3.711646312297926104e-02,-1.687639419318959499e-01,1.519998752859401492e+01
4.150000000000000000e+01,8.932446283671284515e-02,2.198341296932565803e-01,9.814841552750339204e+00,-1.200233160631402618e-01,2.695531889523895552e-01,1.504386587400606068e+01
4.150999999999999801e+01,-2.554402141552090943e-02,1.849543683081002199e-01,9.872456581571181999e+00,-7.448492909363549352e-02,3.458400861124096698e-02,1.487809915220517354e+01
4.152000000000000313e+01,-3.061658578555098709e-02,6.461219445286606189e-02,9.852740205412327867e+00,3.009598881996057296e-01,-1.134441512412285163e-01,1.528688187173755608e+01
4.153000000000000114e+01,7.345981283029957842e-02,9.205775109570640824e-02,9.843115792073799497e+00,-3.668175225967670178e-02,-1.710250506959695993e-01,1.582851663146866272e+01
4.153999999999999915e+01,6.771816867250469996e-02,-2.819730503982054159e-02,9.948688172624278181e+00,-3.706701466043995641e-01,1.061207865802982209e-01,1.487452627978911224e+01
4.154999999999999716e+01,1.825292803974387298e-02,2.216035073383477716e-01,9.849096632474855895e+00,1.105668543506701101e-01,-3.311753088793403244e-01,1.452234628800092153e+01
4.156000000000000227e+01,1.087875820223047551e-03,2.288466416465832765e-01,9.716154172814581713e+00,2.351300471708668016e-01,-4.332570216276505626e-01,1.426776860120683921e+01
4.157000000000000028e+01,5.610670840259165959e-02,1.533273505149848337e-01,9.753806670040987115e+00,3.464994767513480678e-01,1.419355750561011598e-01,1.513713242094611466e+01
4.157999999999999829e+01,-1.741703553080177214e-01,1.316348444092651504e-01,9.856058789514909435e+00,-3.521299392708830411e-01,5.577401770852537244e-02,1.509055755017750400e+01
4.159000000000000341e+01,-3.712747126142530024e-02,5.851962281558806267e-02,9.831131955185247406e+00,2.208348649283495557e-01,8.360717015931247442e-02,1.548581544682472355e+01
