t,ax,ay,az,gx,gy,gz
1.080000000000000000e+02,1.397010554986522490e-01,6.414383568702494709e-02,9.694513800351325372e+00,4.516282041008468778e-02,8.781884720819638224e-02,-5.154783442869269594e-01
1.080100000000000051e+02,3.305281729054156820e-02,4.752961531392416172e-02,9.803245558825492978e+00,-1.166483239255007298e-01,6.628607397757035891e-02,-2.264529083328523096e-01
1.080199999999999960e+02,-9.717171792769270511e-02,-1.542905916430457047e-01,9.855223837115733687e+00,-1.327588790275626429e-01,4.877954533884582000e-01,5.266145903268885098e-01
1.080300000000000011e+02,-8.952171441525554052e-02,1.488823406552509943e-01,9.801881126197427463e+00,3.563821890151469551e-02,1.426684518819289482e-01,-5.596313559746267652e-01
1.080400000000000063e+02,7.262398732709644811e-02,1.001573243290491411e-01,9.730501324733030089e+00,1.237477288682416188e-01,4.594742309500435967e-02,1.031607070094704703e-01
1.080499999999999972e+02,-9.635914050207207426e-02,3.140356648928301075e-02,9.862307573453882981e+00,-3.998910937673335608e-01,-8.501387772727757308e-02,-3.219130545668735244e-01
1.080600000000000023e+02,2.010549873105696092e-02,-2.846919350889470235e-01,9.797557809013341057e+00,2.128014220313678012e-02,7.461387048324774618e-03,4.847703063163623094e-01
1.080699999999999932e+02,-3.455427414174906675e-02,-3.382614529341441273e-02,9.718993501505226007e+00,-4.624008391272837332e-02,-1.308343268786346658e-01,6.088375452624764650e-01
1.080799999999999983e+02,-1.072235953355306082e-01,1.912629226098365720e-01,9.694835819712318781e+00,2.692585538743306334e-02,-7.994489516902196502e-02,-1.029835525573431498e-01
1.080900000000000034e+02,8.322695885742079080e-02,4.770114665711450846e-02,9.779904384187492639e+00,2.108525424417541372e-01,-1.838952645526674701e-01,-4.972576911742445094e-01
1.080999999999999943e+02,7.067703870618956274e-02,-1.209984259288868769e-01,9.770898719022163448e+00,2.095665486783114817e-01,2.787781178067476051e-01,-3.945385243918100859e-01
1.081099999999999994e+02,-1.355649303268018635e-01,-5.572645582815271420e-02,9.772980871313622586e+00,2.926758726316582848e-01,1.904811491940092139e-02,4.624435944616734351e-01
1.081200000000000045e+02,4.814434623118279272e-02,-3.985440537258511107e-02,9.966349885600291003e+00,-3.268293347822085609e-02,-2.194548154271814822e-01,-4.288390344868597270e-01
1.081299999999999955e+02,3.352599949493718229e-02,1.129223666184021035e-01,9.850079759740552277e+00,-8.048438853543299354e-02,1.394663698052356626e-01,-3.384868139186095193e-01
1.081400000000000006e+02,8.374572023585122316e-02,-1.508963282809593354e-01,9.833032237828932765e+00,8.754191619083838416e-02,4.065750743919467614e-02,3.042237920670972096e-01
1.081500000000000057e+02,1.667819386556423922e-02,1.057103171391610696e-01,9.756818890579495474e+00,1.049673787128579533e-01,-1.881761955772590644e-01,7.745849488744867006e-01
1.081599999999999966e+02,1.426836141755651599e-01,7.896967198454862835e-02,9.854924067695556289e+00,5.626947869688561643e-02,-9.957824996888324509e-02,4.349000469046871431e-01
1.081700000000000017e+02,-1.266608815307743163e-02,2.242267449818157177e-01,9.761845882477690139e+00,-4.250773035343892170e-01,-9.517856921147199722e-02,4.887317008900753379e-01
1.081800000000000068e+02,-2.720943974841667085e-02,5.329008424184769610e-02,9.999710788432306430e+00,-1.253234331954737324e-01,5.908868661810027234e-01,2.152672517055524981e-01
1.081899999999999977e+02,-9.747908775978406104e-02,-1.239259422218159656e-01,9.961839085438885633e+00,1.709571716167764821e-01,1.766227958025632094e-01,-3.911775789733575870e-01
1.082000000000000028e+02,-9.339419074180088653e-02,-4.803677698448138855e-03,9.680422182756167615e+00,1.957521636334029480e-01,2.481966060815285757e-01,-9.877971327639613330e-02
1.082099999999999937e+02,-1.024484999015438658e-01,-9.914523061620576783e-02,9.717943537708078949e+00,9.367453669468144006e-02,1.796149062718896058e-02,4.256355498270552040e-01
1.082199999999999989e+02,2.183996454107724888e-02,3.889046545658252779e-02,9.969971534019862247e+00,2.336305741121119314e-02,-1.316075905939941837e-01,3.577009137527951688e-01
1.082300000000000040e+02,-2.690993186764677192e-02,1.742903723717013909e-01,9.787232164524638733e+00,-1.566424144426517007e-01,-3.326026250012747987e-01,7.009485652744805728e-01
1.082399999999999949e+02,3.306932266568553269e-02,-8.580501306405244333e-02,9.850686420496955975e+00,3.985765505920232932e-02,-8.336657261771079908e-02,-2.420350684726452900e-02
1.082500000000000000e+02,-1.209248754461603736e-01,9.315611541108290150e-02,9.767318205742142823e+00,1.088048643118734171e-01,3.632973945066267918e-01,-6.214942470783687556e-01
1.082600000000000051e+02,-8.556922001737279904e-02,-6.191246947354285546e-02,9.532617259135150789e+00,2.901549910937074594e-01,-3.735503649423797812e-02,-3.452304091305982703e-01
1.082699999999999960e+02,-8.725433767755097492e-02,-1.550777145723190309e-01,9.692965408112325321e+00,-2.162602909926735206e-01,1.037484853909286242e-01,-3.913150004636795770e-02
1.082800000000000011e+02,2.169270735125683469e-01,1.598676027639351627e-01,9.843273064110277915e+00,1.765909700953535166e-01,1.707552277051827341e-02,-2.285356721044300710e-01
1.082900000000000063e+02,-1.656813289113686846e-02,2.327034520529883133e-02,9.805297143000826665e+00,2.778911438290398439e-01,1.008454027778115103e-01,4.994717461562869221e-01
1.082999999999999972e+02,-6.636632177105291318e-03,4.914357661724000348e-02,9.779463737871800788e+00,-1.308981396704450850e-01,1.640670116313439411e-02,-1.107999308256437887e+00
1.083100000000000023e+02,-7.745300726627300097e-03,8.617069780326444550e-02,9.805952753468144323e+00,8.088294826553908690e-02,4.197277499114948629e-02,-6.811018910136267257e-01
1.083199999999999932e+02,1.552829320198843011e-01,-1.700752193853906080e-01,9.689228623220650150e+00,-3.868337105885876759e-01,-2.969056376103704764e-01,2.475466033384190467e-01
1.083299999999999983e+02,-1.613339401749463720e-01,-2.656857803453524514e-02,9.674470545181033998e+00,8.151273433118527700e-02,1.837366378049839488e-01,-3.073442893532009057e-01
1.083400000000000034e+02,-5.989952431426344079e-03,-1.642663424499031244e-01,9.615375894397715228e+00,7.871073313051202280e-02,-4.326032086778436314e-02,-8.266548213013604762e-01
1.083499999999999943e+02,-1.622714050345845649e-01,-5.233648116065697103e-02,9.818838051622625684e+00,-1.422333787458758825e-01,-1.716511734749982690e-04,5.498437593115441668e-01
1.083599999999999994e+02,-2.379814282430361971e-01,1.149277225309552897e-01,9.907907085856294316e+00,-6.196861958696756045e-02,-3.248972712248806571e-01,-3.238686052716879815e-01
1.083700000000000045e+02,-7.342399476916422474e-02,4.495253411631580653e-02,9.900045086402528227e+00,2.294956154570482743e-01,5.643586809649138447e-02,-2.421380699094723699e-01
1.083799999999999955e+02,4.121638465035031007e-02,-6.171008283368512037e-02,9.918428472758561654e+00,-1.244388204472358095e-01,-4.209908651980195232e-02,-2.459966006539541228e-01
1.083900000000000006e+02,-7.977807260741909268e-02,2.471436442305444472e-03,9.610268838444335771e+00,1.107739045196236560e-01,1.139691178072149008e-02,9.317271623142231451e-01
1.084000000000000057e+02,3.957651515251236346e-02,-1.454451934718850592e-02,9.763663584216763169e+00,-4.835960154658445198e-01,-1.950067880433251077e-01,-6.137290384717247749e-01
1.084099999999999966e+02,1.064763045048272572e-02,3.109108087644797680e-02,9.857968045578388683e+00,-1.484584658294481885e-01,-1.968389053967594393e-01,-3.422191570694119167e-01
1.084200000000000017e+02,-1.390655984692081015e-02,-6.253682328718940253e-02,9.813233044227530399e+00,2.474526297661398255e-01,1.008176734239230390e-02,1.081634546147573595e+00
1.084300000000000068e+02,1.264963559771658252e-01,-1.225564088952631366e-02,9.770945375350393647e+00,8.987551563393435250e-02,-1.685335668844663640e-02,2.382996295868946013e-01
1.084399999999999977e+02,-5.960365498475320156e-02,1.512693994580877055e-02,9.893727536889491248e+00,2.214174300745915258e-01,-9.774885566865132436e-02,3.618767383517351166e-01
1.084500000000000028e+02,3.806554213602774545e-02,4.257927651271331548e-02,9.993588181891141176e+00,-2.325883133169875938e-02,-3.524517152952404975e-01,-5.179184339560980767e-03
1.084599999999999937e+02,-1.803086761745122668e-01,2.194372623035193912e-02,9.644091722249930498e+00,-1.657789500017944062e-01,4.259827241612601512e-01,2.366857150337919879e-01
1.084699999999999989e+02,9.877943755105899823e-03,-1.638087769676982441e-01,9.959360710898588209e+00,1.825850228212562154e-01,1.110570653726916102e-01,3.252786868280622690e-01
1.084800000000000040e+02,-2.572160368446953574e-02,-1.259958600172635945e-01,9.773274458469849435e+00,2.359022002600166812e-01,-1.945415252434761766e-01,-5.506852103103614393e-01
1.084899999999999949e+02,-1.182246401988400059e-01,6.239877698663973821e-02,9.822169426431399231e+00,2.209957909005157151e-02,6.111676491657062199e-03,2.637723664028940873e-01
1.085000000000000000e+02,3.984987787284056948e-02,-2.542784083455817620e-02,9.791569303531920454e+00,1.408304200602276679e-01,-1.284341757085726288e-01,3.533680523294072673e-01
1.085100000000000051e+02,-7.389510239018741433e-02,-4.444669291242846904e-02,9.693516608591188799e+00,1.112079185670329651e-01,1.714535909627695406e-02,9.236095166831301828e-01
1.085199999999999960e+02,1.732184577177565132e-01,-2.513084311622445013e-02,9.826468882653847103e+00,1.661045258025838356e-01,1.575558993260977869e-01,-1.028062598645197584e-01
1.085300000000000011e+02,-2.433816505344926773e-01,-2.526483708759519331e-02,9.860490832404005701e+00,-1.435065036750236556e-01,-1.457406981750815345e-01,2.663859924011986458e-01
1.085400000000000063e+02,2.482585417616836251e-02,-1.767496324726403889e-01,9.748900509150949745e+00,9.818927507630453855e-02,2.150592407317744037e-01,2.803332403650777849e-01
1.085499999999999972e+02,4.269727445844389256e-03,1.729297670059134207e-01,9.599670654825725791e+00,-2.012388798532158130e-02,-9.765365723027741307e-02,-1.846342551182827973e-01
1.085600000000000023e+02,-2.808637555749642079e-02,-1.126866965103399260e-02,9.824670078228752601e+00,1.899243151054560985e-01,-9.330268735524895052e-02,6.162734597954895310e-01
1.085699999999999932e+02,-5.292357005230119427e-02,1.454489567150532917e-03,9.929390707013920903e+00,-1.632676268516315352e-02,-3.748649660864232513e-02,-3.754952160814162831e-01
1.085799999999999983e+02,6.862819993275557327e-03,7.876633878818362772e-03,9.799517133195280394e+00,1.037551937113951050e-01,1.964241416437815801e-01,-8.064666452708283417e-01
1.085900000000000034e+02,1.062191307627191189e-01,9.622329433786669384e-02,9.752987960903286790e+00,3.905436415930870625e-02,-3.699232501929636818e-01,-3.911859281690035495e-01
1.085999999999999943e+02,-1.672185509076132282e-01,6.836391920754006368e-02,9.892989170165847668e+00,-3.039191542782382349e-01,2.347147811087433311e-01,1.131519845796508106e+00
1.086099999999999994e+02,-8.059868968101835396e-02,-7.484908318877391692e-03,9.786762816787161867e+00,7.617253997286681233e-02,2.631274842288734012e-02,-5.020244220621478126e-01
1.086200000000000045e+02,-1.050317134322140550e-01,-8.726314759943014365e-02,9.770218176747647476e+00,-2.526739231279634401e-01,-1.185519575913707851e-01,-1.025817693874794267e-01
1.086299999999999955e+02,-1.097292269722693475e-01,1.236698153049521215e-01,9.792216978735956090e+00,1.580849809048687216e-01,3.631756055471608846e-01,-3.123516452174485147e-01
1.086400000000000006e+02,3.427490054354261073e-02,5.603527542709608664e-03,9.770188933279392529e+00,1.508146811022991196e-01,-1.228506331405688351e-01,7.871225887744431882e-01
1.086500000000000057e+02,5.893372847338489845e-02,5.949236301966542156e-02,9.797328020042137098e+00,-1.383864421089667229e-01,9.567365936879267119e-02,-7.827594797967192264e-01
1.086599999999999966e+02,1.065102868732037411e-01,-1.084587974009769973e-01,9.842002909269526256e+00,-2.311835823222701536e-01,-2.823318364957680404e-01,-1.954062946627014852e-01
1.086700000000000017e+02,6.050978326295844423e-02,6.490884419881265410e-02,9.927887761523752630e+00,-5.583616414622236124e-02,7.549905256440643878e-03,1.125176686476293764e+00
1.086800000000000068e+02,6.861419242417664266e-02,-1.425139387474085861e-01,9.591674650022110171e+00,-3.056442181513250537e-03,-2.209678088799984230e-01,6.055679607106816131e-02
1.086899999999999977e+02,-1.411808220741322673e-01,-3.973244627490717801e-02,9.762296012897822450e+00,3.472844046464239331e-02,2.360575514358350946e-01,-4.089587352672641729e-01
1.087000000000000028e+02,1.483563241625958928e-01,1.329044262173146446e-02,9.947705870506604597e+00,-4.355378999725388889e-01,-1.322363092479576507e-01,-2.628261438659600935e-01
1.087099999999999937e+02,-2.097575307545102019e-02,1.737305906735248096e-01,9.770606211833761989e+00,-6.487497308245653016e-02,1.497473875540079602e-01,-7.851845858084778307e-01
1.087199999999999989e+02,1.032996079096389491e-01,6.583633306638046745e-02,9.920971504895069515e+00,1.082529154089662549e-01,3.359372486195291024e-02,1.955370886628076676e-01
1.087300000000000040e+02,-1.376167016417934319e-01,1.437409711528659650e-01,9.829084968989011628e+00,-3.344410476832344603e-01,1.694632420909435166e-01,-9.052754025661267079e-01
1.087399999999999949e+02,-2.414198355182246500e-02,4.600115382617309123e-02,9.948691071529180974e+00,-4.903840125859177702e-03,2.935395077241290118e-02,-1.502775503666535159e-02
1.087500000000000000e+02,9.430159085677375375e-02,-1.109957049937456974e-01,9.839145840760874506e+00,8.974125356935387654e-02,4.026601715266887697e-03,-3.624829243856692029e-01
1.087600000000000051e+02,2.792444267947589293e-03,-1.104269915958881187e-01,9.927906783333378726e+00,-9.392572896423491413e-02,-1.296184397543845568e-01,-3.340077026979951236e-02
1.087699999999999960e+02,-7.539698852904087867e-02,7.613874294345479576e-02,9.841599464131810748e+00,1.676832955239703979e-02,-1.466664079965367407e-01,-1.334157041983821679e-01
1.087800000000000011e+02,1.309813335192124006e-01,-1.001751634283027936e-01,9.921621124746533127e+00,-1.205576053518616075e-01,9.008724158127286163e-02,-7.124213135201432623e-01
1.087900000000000063e+02,-1.171414392093989010e-01,-1.543885279482332118e-01,9.985030719433446222e+00,8.610151944890255538e-02,1.781357207505692430e-01,-2.017121734319942961e-01
