t,ax,ay,az,gx,gy,gz
5.839999999999999858e+01,-1.359969190119174609e-01,-2.615461190746782849e-01,9.696712055254335993e+00,1.451924811130657356e-01,1.348555417396166412e-01,-1.636462677318112213e+01
5.840999999999999659e+01,1.227799987851685426e-01,-2.662164588785720376e-01,9.818607139448360499e+00,3.802471654269607981e-01,4.730435430446860295e-02,-1.488276273585359633e+01
5.842000000000000171e+01,4.880953813791823886e-02,-8.999620539298239241e-02,9.752017554980566771e+00,-6.853499095605868063e-02,8.233655020859574625e-02,-1.469684752313470710e+01
5.842999999999999972e+01,1.767502395765340184e-01,-2.604269008981022204e-02,9.830640819367159722e+00,2.666828030905277758e-01,3.650274293217132260e-01,-1.466473824378572743e+01
5.843999999999999773e+01,7.839676512169459210e-02,1.259824032142495276e-02,9.798997982014473251e+00,1.230618601100066656e-01,4.225304213698274913e-01,-1.487839092862316193e+01
5.845000000000000284e+01,-1.268143651631498392e-01,-6.695600337079994635e-02,9.684267673995138992e+00,-1.481934107779525334e-01,4.089719085568138679e-02,-1.525927561720901871e+01
5.846000000000000085e+01,9.636924005999573939e-03,-9.320664796986583012e-02,9.820757694599354437e+00,1.255963768741254899e-02,2.942123166499552300e-01,-1.506271228528906470e+01
5.846999999999999886e+01,-1.015628254718246026e-01,-8.538403943148645259e-02,9.803724462542263041e+00,2.093937469310785393e-01,3.458446033849012918e-02,-1.490861318315328887e+01
5.847999999999999687e+01,-1.651609596718283945e-01,-1.944786920849464473e-01,9.748950204596676272e+00,2.160118108818338822e-02,2.646855595320754539e-01,-1.522007994105208439e+01
5.849000000000000199e+01,-4.471993930699835057e-02,-2.467946495465632994e-01,9.894470005047232064e+00,1.568390870968025541e-01,-3.536668036854631603e-01,-1.482925205069609476e+01
5.850000000000000000e+01,9.815328752991211991e-02,-1.391959803933258688e-01,9.799612554346138538e+00,-7.388630995644600297e-02,1.992377216999690059e-01,-1.532215361513105911e+01
5.850999999999999801e+01,2.749127107875070850e-02,-3.362328689986230357e-01,9.849584550545600337e+00,-2.830427048867691919e-01,1.550702992111913092e-01,-1.523539795764646776e+01
5.852000000000000313e+01,-1.390894131258771094e-01,-1.975001396193890035e-01,9.986901381116197740e+00,-2.460356507354429789e-01,-1.652026945725164619e-01,-1.453379379936543003e+01
5.853000000000000114e+01,-4.823415752127367673e-02,-2.197385666272451687e-01,9.998951318375210562e+00,-5.916032475940798119e-02,-1.315682155399057474e-01,-1.434433904577449503e+01
5.853999999999999915e+01,-1.428665853419799209e-02,-1.083395007010177352e-01,9.685254385842899438e+00,1.745238191201117228e-01,-1.183324868797575313e-01,-1.555941355341832022e+01
5.854999999999999716e+01,-1.689112453970844918e-01,-1.446535862938135297e-01,9.882785826241137883e+00,9.569829047484917917e-02,1.293620453844633589e-01,-1.482228207860609714e+01
5.856000000000000227e+01,7.131723652486121612e-02,-1.801953459416941183e-02,9.791802236705715146e+00,1.310972352824831544e-01,4.344290521300677582e-02,-1.474368021617313218e+01
5.857000000000000028e+01,-2.287350262587517502e-02,-8.443808228004714977e-02,9.842776967805711763e+00,-1.424377515186537324e-01,3.147971011154392373e-01,-1.506658223178381384e+01
5.857999999999999829e+01,-1.390594860932057586e-01,-2.305782873722196369e-01,9.926427613262685412e+00,-8.449407097535931166e-02,-4.325578931640770008e-01,-1.480690741792047760e+01
5.859000000000000341e+01,-1.447173593741067632e-01,-9.941553376185549573e-02,9.882215408313021143e+00,-1.782985999342480421e-01,-2.907356778407449872e-04,-1.597347959076851431e+01
5.860000000000000142e+01,1.100663944921611015e-01,-3.393931413890903803e-01,9.798470749610627806e+00,-1.249195142246154466e-01,1.534813968752219565e-02,-1.513948803468959703e+01
5.860999999999999943e+01,-3.808130321457192657e-02,-9.342705411115817538e-02,9.912139862938255774e+00,2.988218521196054356e-01,-1.294879737173445233e-01,-1.398945386521093326e+01
5.861999999999999744e+01,1.190352028956411651e-01,-2.412833602677206257e-01,9.762389006692906435e+00,1.029068811109598997e-01,3.545160090253526852e-02,-1.464996604926485269e+01
5.863000000000000256e+01,1.572155479902715425e-01,-2.274444797990505529e-01,9.834308306469386807e+00,-7.987466813090067508e-02,-1.820475012330476650e-01,-1.524535980187511264e+01
5.864000000000000057e+01,1.022448272855924351e-01,-3.236910285894101236e-02,9.881700268845870383e+00,-1.706841943827876740e-01,4.107786789116045778e-01,-1.412271565681408347e+01
5.864999999999999858e+01,-5.334317466174908623e-02,-1.277129150513790223e-01,9.887972023937248167e+00,-1.710501231607396977e-01,5.178337220174164535e-02,-1.482478297415484469e+01
5.865999999999999659e+01,-2.497847119567280783e-01,-1.859767758933789372e-01,9.640559822184354033e+00,-6.415733218217217759e-02,-7.079218888642867247e-02,-1.452320767552652292e+01
5.867000000000000171e+01,3.129963045348285039e-02,-6.502758451871851197e-02,9.728800465423631749e+00,1.635957471421819465e-01,1.818270070229399404e-01,-1.557615305482027424e+01
5.867999999999999972e+01,2.091576369778548328e-01,-1.934019608503995125e-02,9.733517318582805444e+00,-2.362747547736855358e-01,2.034849083449258647e-02,-1.466929930624781342e+01
5.868999999999999773e+01,-3.539007817382510031e-03,-2.666381119163322433e-01,9.787621203145718596e+00,2.754041915738663637e-01,5.212450943788391466e-01,-1.469511967024879517e+01
5.870000000000000284e+01,-1.989815518799147309e-01,-2.380414605175157905e-01,9.880556347117664728e+00,3.067476034472375601e-01,-8.112517374104612211e-02,-1.478146781764541373e+01
5.871000000000000085e+01,-6.748784964301175748e-02,-8.554728413599424486e-02,9.833540687641278311e+00,4.678347790051737287e-02,-2.337845884848354372e-01,-1.494969777829586732e+01
5.871999999999999886e+01,-1.837332747668048508e-02,-1.360073636559089028e-01,9.897328653467205584e+00,4.649286756149965255e-02,-1.691723882478133878e-01,-1.567088834107096140e+01
5.872999999999999687e+01,-1.097988567419797418e-01,-3.527793491443453333e-01,9.989738378578339351e+00,1.281539159892826907e-01,5.341401791276536443e-03,-1.458300164111554942e+01
5.874000000000000199e+01,-2.563953967979888948e-01,1.160178530919628304e-02,9.812090963857686532e+00,-2.839431310346358650e-01,-4.791822641185888854e-02,-1.480774811944572100e+01
5.875000000000000000e+01,-9.785077021512496309e-03,-2.148438694040057106e-01,9.834524149544138893e+00,-3.196588823301276250e-01,-2.874617546364992560e-01,-1.512609280502840114e+01
5.875999999999999801e+01,-7.848762463576265669e-02,-2.671593985734550536e-01,9.940615361212319812e+00,4.466063287279595923e-02,2.803815479071690708e-01,-1.533454649880778931e+01
5.877000000000000313e+01,1.772691660899915478e-01,-1.655062445266136384e-01,9.711609057649466692e+00,-2.345824130053267287e-01,2.951883491148698524e-01,-1.490759414852986353e+01
5.878000000000000114e+01,1.010334879827961933e-02,-7.645850075609612884e-02,9.857452974503514653e+00,-1.394531434873860498e-01,-5.153195304834740087e-02,-1.432801114290709776e+01
5.878999999999999915e+01,4.695788968983918843e-02,-5.320021698055474313e-02,9.812153836690999498e+00,8.230564244616964814e-03,-3.450438798177214439e-01,-1.489472321669192567e+01
5.879999999999999716e+01,-1.190861434960594108e-02,-1.609497911576266149e-01,9.663181779868081023e+00,-3.310906143456308071e-01,-4.265190337354228811e-01,-1.399916103319224447e+01
5.881000000000000227e+01,9.373330317385330721e-03,8.691621031542326459e-02,9.907444464195560130e+00,1.214651639982016057e-01,1.141405632618797822e-01,-1.585030446433835927e+01
5.882000000000000028e+01,-1.652299288362143459e-01,1.156395363962856859e-01,9.938518829547737354e+00,3.220435404368420657e-02,-4.331277531111838441e-01,-1.538158488027618986e+01
5.882999999999999829e+01,-1.040166305221289361e-01,-1.218697411524171242e-01,9.903537159842258575e+00,2.796429704397407345e-01,1.648363751119531762e-01,-1.436698936657252546e+01
5.884000000000000341e+01,1.088614701319352146e-01,-1.728746255053020542e-01,9.735595017168769516e+00,-3.141951451506481141e-01,5.170347183404403468e-01,-1.555050625105539375e+01
5.885000000000000142e+01,2.094619697301968939e-02,-2.003494979599755588e-01,1.002976876203850054e+01,-2.159779417566434767e-02,6.261215476956268067e-02,-1.480263104673499086e+01
5.885999999999999943e+01,-3.985069178825137448e-02,-1.819459666095386563e-01,9.910688489644531529e+00,-1.622611125306389068e-01,6.958015394918841412e-02,-1.471457700267898971e+01
5.886999999999999744e+01,4.861712414658739267e-02,-1.715689521510763149e-02,9.880657643952202918e+00,2.128463692009955610e-01,-1.275478339494114655e-01,-1.514477166552805620e+01
5.888000000000000256e+01,5.058619098405933712e-02,-1.330865084346433413e-01,9.903540846775186424e+00,1.375624605495056885e-01,-6.316322091617537771e-02,-1.525412364708254920e+01
5.889000000000000057e+01,1.990894632944207321e-01,-7.963626139635836265e-02,9.868788837457731944e+00,1.769021882560719849e-01,3.689049716151778652e-02,-1.509517188705683211e+01
5.889999999999999858e+01,1.630663438855776276e-02,-9.727825772756558409e-02,9.783876045632935003e+00,6.457982608366588662e-02,-2.583819295100086080e-02,-1.492999595628266896e+01
5.890999999999999659e+01,-1.062507575510300839e-01,-1.060280964632679401e-01,9.856879314409045634e+00,-5.404533864091999595e-02,1.034231042649939036e-01,-1.593661211283614954e+01
5.892000000000000171e+01,-1.156964829156676387e-02,-5.776006859289786743e-02,9.876299613000780298e+00,8.325148146022956497e-02,8.371416281292695660e-02,-1.478084875221778027e+01
5.892999999999999972e+01,6.075656271213766835e-02,-8.391034382507650546e-02,9.819557296931359147e+00,-9.793408882515181046e-02,-2.611749604978634842e-01,-1.525634711664776688e+01
5.893999999999999773e+01,9.956590114287024174e-02,-1.189990898845157685e-01,9.737010862503467479e+00,2.306446028695090245e-01,1.164342334891924208e-01,-1.546565169259304540e+01
5.895000000000000284e+01,-1.615031872127879464e-01,1.782181147024078371e-02,9.831075938265678715e+00,-1.873724876750544888e-01,5.325198883191288070e-03,-1.540553529073645755e+01
5.896000000000000085e+01,2.537067194918132471e-02,-2.985962234056227516e-01,9.907441457145663932e+00,2.871725865385805349e-02,-1.923753904474377885e-01,-1.416066747731360742e+01
5.896999999999999886e+01,-8.972549274981164724e-02,-1.383621392907864733e-01,9.809809084964728143e+00,3.981159344945902484e-02,-2.484140918128020792e-01,-1.482268034350855679e+01
5.897999999999999687e+01,-5.666319246194422704e-02,-2.194290928461238854e-01,9.921659899125042870e+00,-3.317856913123708867e-02,-2.433155824621862640e-01,-1.479148486174971211e+01
5.899000000000000199e+01,8.458396242433921519e-02,-7.470328252531781288e-02,9.781791079206330508e+00,2.505256164648434619e-03,-5.318705238853875007e-03,-1.399926769406543769e+01
5.900000000000000000e+01,7.462485394318989218e-02,-3.300875783070862379e-01,9.807487348906361646e+00,7.129046489304195766e-02,-1.067017706594816095e-01,-1.504817979119976812e+01
5.900999999999999801e+01,-6.781524611975589534e-02,-1.433484381549498810e-01,9.637188574017823584e+00,-9.109426714485274745e-02,4.444867529371529513e-02,-1.551774434367878186e+01
5.902000000000000313e+01,-1.578420210400831997e-02,-1.184290306077790261e-01,9.852488148300396986e+00,1.219964153794655115e-01,-2.944366349302702246e-01,-1.455040397837111321e+01
5.903000000000000114e+01,-5.360817951208534521e-02,-4.437081698693767784e-02,9.605682761647786450e+00,-1.614493573368312451e-01,4.100440978394067487e-02,-1.505126591515852041e+01
5.903999999999999915e+01,2.891702989956767555e-01,-2.089448837992081420e-01,9.817388861716198178e+00,-2.284508837737322939e-01,2.590809782628274438e-01,-1.571413769134009186e+01
5.904999999999999716e+01,2.783581664453627785e-02,1.123564733114468528e-01,9.843962752837898122e+00,-2.963992601924345105e-01,4.035563852353301062e-01,-1.535592019837588573e+01
5.906000000000000227e+01,-8.394815912727898732e-02,-2.253040830604833011e-01,9.813320001675000626e+00,-2.279406923748745484e-01,1.376104023725795711e-01,-1.477283789010277282e+01
5.907000000000000028e+01,1.322167146221126244e-01,-2.804880950812689289e-01,9.679609570893109805e+00,6.845192656731649561e-02,1.987146410230539451e-01,-1.525208937319890090e+01
5.907999999999999829e+01,1.357461365683299004e-01,-1.060874569613221852e-01,9.893279470821802590e+00,-2.206265368288743908e-02,5.077285432308582987e-03,-1.437002368656803597e+01
5.909000000000000341e+01,1.791670710523534105e-01,-1.794218791439800009e-01,9.968967053693756242e+00,4.905144980700920643e-02,-1.270084166458778918e-01,-1.453469844964130964e+01
5.910000000000000142e+01,2.087993682510094207e-01,1.746872593933301854e-02,1.001548349127803839e+01,-2.999221697948981774e-02,-3.533266882912600715e-01,-1.529882873592928583e+01
5.910999999999999943e+01,7.077148828661287971e-02,-3.256500055929446580e-01,9.812272849713250977e+00,-3.180743874941108218e-01,-1.470678454381079969e-01,-1.522551444484338390e+01
5.911999999999999744e+01,-3.498517437781280270e-02,-1.630979967749137394e-01,9.787227219632354647e+00,8.097850979406125138e-02,9.120478578105735423e-02,-1.514724887399726860e+01
5.913000000000000256e+01,-2.026167676043194935e-02,-8.485507565809546904e-02,9.687297403977897403e+00,-1.151209243587915376e-01,9.505392704805820658e-02,-1.503664622258289540e+01
5.914000000000000057e+01,-2.920753016065431168e-02,-2.333276339888693540e-01,9.858571261977630229e+00,-2.262120124400801568e-02,-8.848113911759113853e-03,-1.609482045015217366e+01
5.914999999999999858e+01,-4.037553671790265752e-02,-3.059057286784170326e-01,9.962984314592995716e+00,3.900358002618782294e-01,3.432657832775681296e-03,-1.574989790841913617e+01
5.915999999999999659e+01,1.239936807288590653e-01,-2.185096931812127719e-02,9.797794984283889619e+00,-2.330318384088068129e-01,-3.288900841519448726e-01,-1.495514176595722589e+01
5.917000000000000171e+01,7.209069359758764469e-05,-2.506089259037700412e-01,9.898170921826839219e+00,5.683102481012006907e-02,1.150010731461972996e-01,-1.512740678989101895e+01
5.917999999999999972e+01,9.714218648162062375e-02,-6.228289770829602279e-02,9.542710355956090851e+00,2.731502003936733813e-01,-3.263595349891682540e-01,-1.461286954102921953e+01
5.918999999999999773e+01,6.765165547809898206e-02,-2.590797892541218950e-01,9.713425861531185035e+00,7.700599135063158907e-02,1.574178933921867030e-01,-1.511812364010751963e+01
