t,ax,ay,az,gx,gy,gz
2.391999999999999886e+02,6.539248202008934863e-02,-1.053348875999905038e-01,1.005542171311300059e+01,9.938514852260054919e-03,-3.896960707527306611e-01,1.061745845897203305e-01
2.392100000000000080e+02,-7.227865196606073073e-02,1.161312785444085921e-01,9.896078845538569979e+00,3.680797654666744245e-01,1.168868480015018869e-02,-5.480146849002590637e-01
2.392199999999999989e+02,3.538972266697813784e-02,-1.198806507523396958e-01,9.866404886589528189e+00,1.137764045642677968e-01,-1.183117129184535765e-01,1.178967767138426659e+00
2.392299999999999898e+02,-9.131455730731741216e-02,9.085640914120365896e-02,9.913302285657197288e+00,-1.065245561753674075e-01,-5.329035088313184287e-01,-2.618297636349776192e-01
2.392400000000000091e+02,5.721793837246472170e-02,-9.122864618283682558e-03,9.849087089408847362e+00,-2.787480849427805829e-01,9.090332752556935184e-04,-7.032319127983444051e-01
2.392500000000000000e+02,5.982208130885605102e-02,-1.419671568639921944e-01,9.803394904134622223e+00,1.724769061909595946e-01,-3.066723042025248924e-01,-4.204837106091486865e-01
2.392599999999999909e+02,5.917426543810810902e-02,1.476137166835305714e-01,9.735629476121157921e+00,-2.029007404163223893e-01,-3.506017566661923657e-01,2.616369079761904914e-01
2.392700000000000102e+02,3.355356540969377938e-02,1.473679116608832274e-01,9.690019819341078033e+00,-1.094288310506702361e-01,1.300652852914667423e-01,7.802139341227757319e-01
2.392800000000000011e+02,-2.941222701253600261e-02,1.924424685755792008e-02,9.695163889761094111e+00,-6.070151530201677720e-02,9.633331659779248435e-02,1.829309461532402092e-01
2.392899999999999920e+02,-2.116935895708967064e-02,2.247279089627952225e-03,9.881826789902156349e+00,1.451868459922004140e-01,3.513828624140450385e-01,5.080953921641678805e-01
2.393000000000000114e+02,1.159098581861673777e-01,-4.010620751597406691e-02,9.961339410508498915e+00,-7.161269174901323253e-02,-1.052657562029179206e-01,-5.504436736345895698e-01
2.393100000000000023e+02,4.149148557162031514e-02,5.532227904731826934e-02,9.715482216201991150e+00,-3.442300490258179968e-01,8.982418262815017318e-02,1.901569641073920236e-01
2.393199999999999932e+02,4.880889996675447789e-02,4.088366805808010818e-02,9.764454838168060036e+00,1.707347323174521984e-03,-2.846635989755971329e-03,4.353706669014598685e-01
2.393300000000000125e+02,8.648981740593758225e-03,1.526362728351248477e-01,9.793344369155951412e+00,3.903827012750355624e-02,1.255581946697493234e-01,1.190834381770476957e-01
2.393400000000000034e+02,6.514498360132249533e-02,2.102023175951652986e-02,9.960179009899780667e+00,1.696577655000772525e-02,9.413412037031210211e-02,-8.567973655669271216e-02
2.393499999999999943e+02,9.589306885694545701e-02,1.399858943203187434e-01,9.843352555522555392e+00,-6.216420282640285067e-02,-1.881312884377647210e-01,6.002775101212268760e-01
2.393600000000000136e+02,-6.279670581252966288e-02,-1.860429587012517594e-01,9.879767219025241687e+00,-1.599312222936009331e-01,5.500504273257844634e-02,5.629770191321247230e-01
2.393700000000000045e+02,5.927472845078327751e-02,8.104450469777163546e-02,9.949921638163058191e+00,1.834821831753835272e-02,5.601187559525427906e-02,1.675869490275133655e-01
2.393799999999999955e+02,-2.260838632770741791e-02,1.779675210929016274e-02,9.739530821134410488e+00,-1.355172469278314029e-01,3.490013999527985522e-01,-2.994911300279614053e-01
2.393899999999999864e+02,3.138533314335378854e-02,3.589818399675308996e-02,9.872167063821704502e+00,-6.378298416132058626e-03,-5.048107847503616186e-02,-1.065106736877855648e-01
2.394000000000000057e+02,8.352365470278461101e-02,1.818471301876307678e-01,9.849926659817480612e+00,-4.571984620989537063e-01,-1.288806675497211340e-01,-4.663517232558867520e-01
2.394099999999999966e+02,-1.451701293650744795e-01,1.107121818617012726e-01,9.838159118565387828e+00,1.675438253891996798e-01,1.331472765837842243e-01,-9.910429283896919905e-01
2.394199999999999875e+02,-1.083819836811254489e-01,-3.503277773149945234e-02,9.762521695062657656e+00,-3.383173626117210592e-02,5.505608946094645018e-02,3.176722611520806372e-01
2.394300000000000068e+02,-6.593930500181915955e-02,-8.522777363628356029e-02,9.913148596259400591e+00,-4.405292813627526005e-01,-6.783921380841619053e-02,8.075964517904040685e-01
2.394399999999999977e+02,-7.303444797211190720e-02,-1.916330124146535530e-01,9.811736346168686396e+00,3.586836337968160038e-01,-2.371677429405534901e-02,3.036391330024043045e-01
2.394499999999999886e+02,-1.623489009027853300e-02,4.503531980792746525e-02,9.854805645955179827e+00,9.165702757861353411e-02,1.901622456882203493e-01,-4.858058891078858021e-01
2.394600000000000080e+02,1.692380878461993976e-01,1.229926354181543613e-01,9.934928286321550672e+00,-2.515893664412495734e-01,-1.443788971395519871e-01,3.853048206173615986e-01
2.394699999999999989e+02,1.178446885375321468e-01,1.268077624636008982e-01,9.626717404463917660e+00,-1.140750976695474039e-01,2.590781257139970761e-02,6.360976435144381769e-02
2.394799999999999898e+02,-5.805898008472248906e-02,-4.035706850903866133e-02,9.718790958812123293e+00,-3.269421693668292939e-01,3.714238914069087905e-01,-5.577212524256894843e-01
2.394900000000000091e+02,8.688833600885859099e-02,1.250858228007067086e-01,9.754693014123050787e+00,-1.240683402488557824e-01,-1.335283739146593263e-01,-3.737755458203551595e-01
2.395000000000000000e+02,-4.322267368873269899e-03,1.270596793286296877e-01,9.776240205290973151e+00,-9.649423399846609670e-03,-6.449804364464391260e-02,-7.259870661259856250e-01
2.395099999999999909e+02,3.437492849727540739e-02,9.659506698228344235e-02,9.775615456844874984e+00,4.541996523610907638e-03,1.499839879303190571e-01,-3.997030234452208508e-01
2.395200000000000102e+02,-9.808593282705529992e-02,5.249280341238452691e-03,9.848978101065727131e+00,-1.393476337803582210e-01,-1.502552147005878080e-01,-4.752571463976396071e-01
2.395300000000000011e+02,-1.320683551044411486e-01,-4.527798496428042316e-03,9.782595580402951185e+00,-6.217683639568869630e-02,1.345650612692926573e-02,3.282810831608250490e-01
2.395399999999999920e+02,7.323485338059597394e-02,5.350360327139687400e-02,9.812815193356493992e+00,8.232532913493706417e-02,-2.054930897102742390e-02,1.442583326881904660e-01
2.395500000000000114e+02,3.284581128008501327e-03,6.822803308705617520e-02,9.983160121270103105e+00,2.898416586757907726e-02,-1.908427945132390099e-02,-1.655194461179002041e-01
2.395600000000000023e+02,5.225971530633636425e-02,-4.745681795684342924e-02,9.797318021733079974e+00,3.686972845190629733e-01,2.318721878957037130e-01,3.549380841652668428e-01
2.395699999999999932e+02,1.593747594044030158e-01,-3.618118209117530265e-02,9.703621031391229224e+00,-3.045501859623582774e-01,3.272610134955593608e-01,-5.534977025230078951e-01
2.395800000000000125e+02,-2.388000354700429984e-02,2.690043217165292294e-02,9.876959752457494801e+00,-2.420223105328580399e-02,1.307897407238982346e-01,-1.051943395389997926e+00
2.395900000000000034e+02,-2.296353960024967444e-02,-6.185405138584534890e-02,9.832332213340709615e+00,2.538329578766608807e-01,-4.069358555181540327e-01,3.735194938040716228e-01
2.395999999999999943e+02,1.768661239579193134e-01,-5.083567491115337234e-02,1.011098191146676939e+01,5.113391165064311572e-01,1.476836331447034245e-01,-8.177155955583739200e-01
2.396100000000000136e+02,1.698928038403470231e-03,-1.759862932092435550e-01,9.759837609365588307e+00,-1.895234143578022890e-01,2.642690846477936950e-01,-1.398306559727002518e-01
2.396200000000000045e+02,-8.033072487591058630e-02,-1.009068854849506369e-01,9.870138086086646112e+00,6.544833031046849714e-02,1.127304392509187320e-01,-9.671876343635493756e-01
2.396299999999999955e+02,7.356821592925853748e-02,7.444432413047773200e-02,9.819032360020738537e+00,2.065153905109445159e-02,3.722014856918364617e-02,-1.762861185499004224e-01
2.396399999999999864e+02,-2.376761442742071628e-02,1.007053554473714696e-01,9.898695110307523137e+00,-3.884341783881066767e-01,-2.751154860939629410e-02,-1.616113965029492838e-01
2.396500000000000057e+02,-8.226382177411825647e-02,-3.925266282203463894e-03,9.770364274651919700e+00,-1.030933008223652997e-01,3.783274921177504080e-02,-1.345189791138350077e-01
2.396599999999999966e+02,8.968659995440867241e-03,7.907779113801798043e-02,9.969930619077883804e+00,1.923138584867630785e-01,-1.223179267139558324e-01,4.349349597880347029e-01
2.396699999999999875e+02,8.266860211079130050e-02,-2.231232892952499380e-01,9.764411216675185301e+00,-2.619518269624110940e-01,-1.088192595618847486e-01,-4.485895012724419040e-01
2.396800000000000068e+02,-1.159182106030718223e-01,4.280623271113496997e-02,1.009159242876852502e+01,2.440265529983596804e-01,3.286421579581215169e-01,-5.263635307839348298e-01
2.396899999999999977e+02,-1.182435779769291789e-01,-1.459226355840949896e-01,9.722391039307177962e+00,-2.139512056313869204e-02,2.179940820175338412e-02,3.699123654429121166e-01
2.396999999999999886e+02,-8.005905988050957683e-03,-8.399423549700296698e-02,9.722315630511642937e+00,-5.652327273044469719e-02,-4.911079187820683450e-02,7.026311129716321657e-01
2.397100000000000080e+02,-1.100032677977388906e-01,6.492429899205268140e-02,9.634478861899992808e+00,1.606780698466869772e-01,4.529157218828150713e-03,6.559611861008260991e-01
2.397199999999999989e+02,-1.276072681970571165e-01,8.190964802873221262e-02,1.005107202760146379e+01,2.882513422529012770e-01,7.833446344362086922e-02,4.215203650842354044e-01
2.397299999999999898e+02,6.116067008443496758e-04,-1.905311211001533278e-01,9.868581169426482447e+00,6.571076435863618670e-01,-1.938265252912115821e-01,-3.253830499232420737e-01
2.397400000000000091e+02,1.106070473596349607e-01,-1.667458737684266723e-01,9.917557356113666955e+00,-9.006772357785770844e-02,1.902109740101184110e-01,3.825782218278905855e-01
2.397500000000000000e+02,7.880173575606384817e-02,-6.708541670877954388e-02,9.768257423926645089e+00,4.156020134167007912e-02,2.272534623717835656e-01,-5.216137350451776483e-02
2.397599999999999909e+02,-1.069410280413637601e-02,-1.791808830556044230e-01,9.771323191788432894e+00,-9.512612373354648043e-02,8.831599942833595618e-02,4.640201710899503063e-01
2.397700000000000102e+02,1.282571989229575882e-01,-4.138545694874812275e-02,9.984808763140582855e+00,1.002136145450187033e-01,4.938009606629920056e-02,-1.338144475524257748e-01
2.397800000000000011e+02,1.734959576768841105e-01,8.666679727108880793e-02,9.877169221116391284e+00,4.682957467689501385e-01,3.563691920945664671e-01,1.736756351704704104e-01
2.397899999999999920e+02,4.912214913635929575e-02,-1.552057420833088119e-01,1.005719756748261773e+01,-1.804375312118756125e-01,2.003062558268282611e-01,5.685708634385384652e-01
2.398000000000000114e+02,-3.661916386486346875e-02,2.012702003274775275e-01,1.005777207921055272e+01,-1.537787008679803169e-01,-4.168840414556040930e-02,6.747106882433828723e-01
2.398100000000000023e+02,1.562615824670778863e-01,-2.606889575361829442e-02,9.844745329107695397e+00,-9.067938173239866242e-03,2.415429795959332382e-01,-5.480731094332694786e-01
2.398199999999999932e+02,1.518548556444603292e-01,3.721911316601751729e-02,9.924474552137901640e+00,-1.744237607275637703e-01,-3.515318816333332652e-01,1.193521876358684342e+00
2.398300000000000125e+02,2.533961534892248055e-02,-1.028319104421230590e-01,9.621363497915583096e+00,-4.150423763422981804e-01,-2.581213881621580164e-01,2.054443188361868566e-01
2.398400000000000034e+02,1.222845490062975382e-01,1.041395915638568676e-01,9.854795368122111654e+00,8.940720600380343275e-02,-1.164909704120827699e-01,-4.291219427097580086e-01
2.398499999999999943e+02,-7.812846539208295749e-02,2.338510749058840196e-02,9.761700651284984431e+00,-1.941126714753668844e-03,1.673763364599184858e-02,6.077071207745218112e-02
2.398600000000000136e+02,-2.067240280659002893e-01,2.545033263183586053e-02,9.822356359824095051e+00,3.730586373310355031e-01,-3.342799985256198619e-02,2.099846074695537468e-01
2.398700000000000045e+02,-9.711891066054478827e-02,3.867727269880238267e-02,9.811295638536796204e+00,-2.630853603236211757e-01,6.811728249159200443e-02,-5.975587315896814244e-01
2.398799999999999955e+02,2.065696801445694036e-02,-1.293414962643884836e-01,9.808717661661381371e+00,-5.591587616607340133e-02,2.885513189987192785e-03,-6.520329286430477378e-01
2.398899999999999864e+02,-7.417963984338605057e-03,4.105636346998406405e-02,9.977431120540668275e+00,-7.785534871303667614e-02,6.720728371017044289e-02,-5.952848015300735707e-01
2.399000000000000057e+02,9.618628306510899895e-02,7.042901513259018642e-02,9.829206151801908931e+00,-8.161570723727260349e-03,-1.698278047759820275e-01,-5.624064001915324296e-01
2.399099999999999966e+02,-1.485655499492098131e-01,-1.697423047288205700e-01,9.705165082825747191e+00,-1.463207530069196849e-01,-5.696448810801856694e-02,-2.075241953271585338e+00
2.399199999999999875e+02,-1.466111579874053161e-01,-6.028068359775524271e-02,9.829874477269575195e+00,1.651564680189135936e-01,-1.372319934879419057e-01,-2.814740910882342462e+00
2.399300000000000068e+02,7.623044655803054570e-02,-8.075198787906964770e-02,9.779179781848810649e+00,7.373879724518067353e-04,2.975092720665670210e-01,-3.929986509153843066e+00
2.399399999999999977e+02,-1.435926657076703750e-01,-6.242611328807255028e-02,9.923875995312270604e+00,-2.102771447046555275e-01,-2.459406428460899630e-01,-6.378138142143272127e+00
2.399499999999999886e+02,-2.707534915556982988e-02,-1.117101496033055807e-02,9.758852951943628895e+00,1.418974088882937745e-01,5.329908232110896343e-02,-8.078626105992631423e+00
2.399600000000000080e+02,2.456293309607121209e-03,-1.818661537120508376e-02,9.885245242207981065e+00,-8.981856666716614424e-02,9.264653216741502648e-03,-8.824838007812694229e+00
2.399699999999999989e+02,-6.504891945824362032e-02,-1.266490624522804420e-01,9.846249469209492844e+00,4.382123393470077621e-02,-3.237779091064996173e-01,-1.020619528740361304e+01
2.399799999999999898e+02,5.778612140962890303e-02,-3.774658164864704013e-02,9.860885695534669537e+00,9.833269064565428041e-02,-1.719994095379278887e-01,-1.269360523901889337e+01
2.399900000000000091e+02,-2.061867393955669758e-01,-2.877467355243241154e-01,9.699839672220599951e+00,-1.581417302402309266e-01,2.494481618678162094e-01,-1.298500824492331773e+01
