t,ax,ay,az,gx,gy,gz
1.551899999999999977e+02,8.518649257217694726e-02,-4.063152264801223046e-03,9.792016761242617662e+00,-2.817696099650703334e-01,2.153025816932395420e-02,-1.568130318370987375e+01
1.551999999999999886e+02,4.901892741398156117e-02,-2.519829539919240524e-01,9.784900683913210884e+00,-3.430159808729022885e-03,-1.160448714439852314e-01,-1.485413614924722658e+01
1.552100000000000080e+02,-1.987859812285322839e-02,-3.963416878607566307e-01,9.632315612467101218e+00,7.889725195534247337e-02,-3.131280882519955622e-01,-1.488305183240796481e+01
1.552199999999999989e+02,9.532912543025195973e-02,-1.917405551017395127e-01,9.741752303554257253e+00,1.281082226902958282e-02,2.130388253537082999e-01,-1.493246285868672629e+01
1.552299999999999898e+02,5.210397575671121828e-02,-6.056581974555766412e-02,9.914501656773772709e+00,1.746303884912547011e-01,3.896960644961659503e-01,-1.530090559455077326e+01
1.552400000000000091e+02,3.283623953335296913e-02,-2.237278195857069218e-01,9.774594831877752910e+00,7.642382470485376000e-02,3.832210141273366677e-01,-1.473511295041637048e+01
1.552500000000000000e+02,-1.716327109677213691e-01,-1.213998894754755586e-01,9.822108881122153079e+00,2.589697875644064728e-01,2.343221416584581954e-02,-1.613628470482769117e+01
1.552599999999999909e+02,3.984823951532380851e-03,-2.791486879766027496e-01,1.002007681454412769e+01,-3.292914152238653469e-01,4.061107003333838117e-01,-1.574785190877868146e+01
1.552700000000000102e+02,-1.242826058329825067e-01,-1.960781752643196707e-01,9.847760726278579568e+00,3.548722104376054176e-01,1.880052536536910013e-01,-1.579886884519144630e+01
1.552800000000000011e+02,-1.095937779670402429e-01,-2.455319836163389891e-01,9.969681426306078009e+00,-1.282668321424724339e-02,-2.080396459007318455e-01,-1.442743717402411896e+01
1.552899999999999920e+02,-3.611424346118292245e-02,-1.819449870669866964e-01,9.837902398991019481e+00,3.965175010915993337e-01,-2.427489144265844723e-01,-1.457544582029863989e+01
1.553000000000000114e+02,1.463417447976723962e-01,-1.463639634199468964e-01,9.768532796908875326e+00,-3.453302409198488743e-01,-1.576386706243634583e-01,-1.518489334000218172e+01
1.553100000000000023e+02,3.653907843621432422e-02,-9.757193428192957596e-02,9.773126212747843766e+00,-1.263773502559415764e-02,-3.256233138304800434e-01,-1.517384966757315823e+01
1.553199999999999932e+02,4.312684416050560632e-02,-2.086088736641291130e-01,9.851136067397199270e+00,3.614468061994047798e-01,-2.839208022635136483e-02,-1.524004914458372006e+01
1.553300000000000125e+02,7.704267719063206954e-02,-2.803138972433717457e-01,9.830621435581200274e+00,-8.900901950488782077e-02,-1.794028252027866088e-01,-1.458521516376523941e+01
1.553400000000000034e+02,-8.746803013392756565e-02,-3.187279867764915564e-01,9.934802477128249265e+00,-5.014777181468653700e-01,1.990126877869410199e-02,-1.432866593053060988e+01
1.553499999999999943e+02,-1.576409807809679986e-01,-5.841998105668130825e-02,1.005458824798029127e+01,1.297929193451314439e-02,-2.231248944467765019e-02,-1.469887810223361768e+01
1.553600000000000136e+02,-1.753982820742179816e-01,-2.481639918907649900e-01,9.909926053175398764e+00,9.419237638326566353e-02,3.258661346555858929e-01,-1.464708328599395948e+01
1.553700000000000045e+02,2.310710744819205117e-02,-1.151029476638343596e-01,9.828726986553904865e+00,1.215076297570308744e-01,5.497376723818214045e-02,-1.461547432874981034e+01
1.553799999999999955e+02,9.866912199945004902e-02,-3.258399068831274170e-01,9.866967283621628226e+00,7.535408718478971146e-02,-1.261788861732835443e-01,-1.476311576982569918e+01
1.553899999999999864e+02,9.127497799138464818e-02,-9.673164381946902646e-03,9.866660414624391251e+00,-1.497032909504063952e-02,-2.357156923650554070e-01,-1.507115605821788762e+01
1.554000000000000057e+02,-8.310478483110984860e-02,1.117057241438124959e-01,9.836694544417408537e+00,1.242826134919455400e-01,-2.452149858203176436e-01,-1.533605564606668281e+01
1.554099999999999966e+02,1.355495532875007347e-01,-1.337216703151491437e-01,9.769559403534259445e+00,-4.548486320076245426e-01,3.387253960649754259e-01,-1.378921256662200889e+01
1.554199999999999875e+02,2.043042243470317987e-01,-1.956062972186340676e-01,9.760548260050923020e+00,2.137078129804078908e-01,4.400935865505394701e-02,-1.541049641549395410e+01
1.554300000000000068e+02,6.076317593481398577e-02,-2.278786753318484681e-02,9.846069380769295165e+00,1.013440216153400908e-01,-4.107088790523005795e-01,-1.502458904654975669e+01
1.554399999999999977e+02,1.487279627272901639e-01,-2.162735404124384586e-01,9.717422857190834762e+00,-1.169765747666074995e-01,1.151644317168103310e-01,-1.452846538888177719e+01
1.554499999999999886e+02,8.731556045083783968e-02,-1.616292489926922371e-01,9.803436130580585939e+00,-2.070262936779799223e-01,3.831473491560092315e-01,-1.536834641171928162e+01
1.554600000000000080e+02,-2.297155934451147741e-02,-4.432854804446965113e-01,9.975665447064614000e+00,2.075623617221401540e-01,-9.776160039667447510e-02,-1.483235771369272449e+01
1.554699999999999989e+02,-6.645818159304667239e-02,-1.743726234220043247e-01,9.689012299114560633e+00,-8.842472381742494392e-02,1.188175496809106141e-01,-1.512413006200624110e+01
1.554799999999999898e+02,-1.613078153675810700e-01,-5.100940481484075861e-02,9.766157688350425303e+00,5.176994917930022311e-01,3.135064858787030978e-02,-1.519390187451369911e+01
1.554900000000000091e+02,-4.447625813337491296e-02,-2.126999380536489515e-01,9.776421984811271670e+00,-1.461578457270757136e-01,1.316268187346303631e-01,-1.529045110164555865e+01
1.555000000000000000e+02,-2.368314589655726859e-02,-2.110775280285751565e-01,9.917872518727532949e+00,1.195570909130139747e-01,3.343966600622106378e-01,-1.600036556721071435e+01
1.555099999999999909e+02,-2.147273937905080921e-02,-2.103072591949250447e-01,9.855654904052247645e+00,2.454802589114683242e-01,-2.841494540858770512e-01,-1.402738536611024678e+01
1.555200000000000102e+02,-1.125814645339472293e-02,2.961304470650580334e-02,9.896845994655210532e+00,-4.690848201323180588e-01,4.428172478540905004e-03,-1.472319552386121444e+01
1.555300000000000011e+02,-2.293697250227556550e-01,-1.439305846071081696e-01,9.925616153836784861e+00,-1.190468576756216895e-01,-2.436496453536727835e-01,-1.456324381567524640e+01
1.555399999999999920e+02,7.790295379797135267e-02,-1.627814834974143088e-01,1.005954021301959322e+01,-1.507114061406514618e-02,-1.547490763418337689e-01,-1.511311274134435401e+01
1.555500000000000114e+02,8.950868360643342292e-02,-2.071419322485751890e-01,9.624036725347854926e+00,2.701659651950291119e-01,-8.644397149952810430e-03,-1.560227616844310106e+01
1.555600000000000023e+02,3.710312159860167797e-02,-6.384538558332848723e-02,1.011453696094065791e+01,-4.188185967294229956e-02,-8.070057018859277953e-02,-1.475652688601222806e+01
1.555699999999999932e+02,-1.169345463765804616e-01,-2.472408302996142171e-01,9.933827369847298527e+00,8.037858466195131613e-02,4.414361640945705378e-01,-1.497131011496057695e+01
1.555800000000000125e+02,3.669857565510267067e-02,-4.089131558406472466e-02,1.004999792102848666e+01,1.019672790535600254e-01,1.830922320921362090e-01,-1.490834796081275115e+01
1.555900000000000034e+02,2.261002381455465976e-03,-1.783860222671851403e-01,9.775874429079980388e+00,-2.990378913532009686e-01,-2.126147446851238410e-01,-1.536706992276919159e+01
1.555999999999999943e+02,4.744826962505264978e-02,-4.952628521391840011e-02,9.830591287420382685e+00,2.846489591978922096e-02,2.282401152275350398e-01,-1.572193892545903537e+01
1.556100000000000136e+02,1.551122589466414070e-01,-2.035625979844759847e-01,9.712847513765314744e+00,-8.011618589345734232e-02,1.656411878477066224e-01,-1.489075107511592932e+01
1.556200000000000045e+02,-1.784689944144494597e-02,-8.483838559044723504e-02,9.656589197426788118e+00,-1.543407026638442536e-01,1.262988688697540274e-01,-1.588630681084447716e+01
1.556299999999999955e+02,1.815254967466474814e-02,-1.126955962353528851e-01,9.815067169194348295e+00,1.733240655725381829e-01,7.427951956494802110e-02,-1.455560513613866647e+01
1.556399999999999864e+02,-8.643615024257507440e-02,-1.726408602653293212e-01,9.774862381069940653e+00,2.746372373195770655e-01,1.153374797354674887e-02,-1.551106704205107789e+01
1.556500000000000057e+02,9.216763194775674795e-02,-2.978505812233017691e-02,9.789397213309625201e+00,-2.384401510980426464e-01,-1.905896624127754457e-01,-1.421528643298677430e+01
1.556599999999999966e+02,7.027366716094254895e-02,-3.707548889151818239e-02,9.731779425411916762e+00,4.116676561332235917e-01,-1.534031269470330083e-01,-1.606987236073055314e+01
1.556699999999999875e+02,2.165605471382922240e-02,-2.311378052481527501e-01,9.855691513974210949e+00,1.848710840492120422e-01,1.158405370716143329e-01,-1.572208272333562640e+01
1.556800000000000068e+02,-1.053130882905640997e-01,-2.383615313279642267e-01,9.837923252088939918e+00,-2.223049526521451991e-02,1.592294886160168232e-01,-1.523718301588641744e+01
1.556899999999999977e+02,-6.833033288473126798e-02,-1.908457452078028971e-01,9.830706200432242525e+00,5.814321835739849620e-01,6.105025078844156933e-03,-1.402308665720130243e+01
1.556999999999999886e+02,-1.831258637811733758e-01,-1.964447006223348224e-01,9.729767489473788444e+00,-1.711259885555006105e-02,-5.699213875996798212e-02,-1.517211795494032067e+01
1.557100000000000080e+02,-6.951026620765271558e-02,-6.272206718665900016e-02,9.723332402915092487e+00,-6.293949460566793108e-02,-1.490368000354891365e-01,-1.523970823939428065e+01
1.557199999999999989e+02,7.093673945834129413e-02,-1.308059660913493127e-01,9.821345883969483381e+00,2.552518532828746967e-01,3.401484546774303785e-01,-1.477446583339882302e+01
1.557299999999999898e+02,3.957618042580701018e-02,-2.566131877049694365e-01,9.705390751243493597e+00,8.849590052864152179e-02,-4.989072667897561687e-03,-1.514987416175997126e+01
1.557400000000000091e+02,1.596879612100358600e-02,-2.519707019217338195e-01,9.844667266274640838e+00,-7.173398256481501589e-02,-8.024788985803994745e-02,-1.471922814109123756e+01
1.557500000000000000e+02,1.484299090918317909e-01,-1.553915808288425238e-01,9.698888886703647572e+00,1.881526449860477512e-01,4.664505137477330532e-01,-1.508469177999893063e+01
1.557599999999999909e+02,3.045297493301235559e-02,-8.004471954058720029e-02,9.925219027007157635e+00,-1.004558105134920887e-01,-2.040133717858753915e-01,-1.431127397404194745e+01
1.557700000000000102e+02,-5.771548375561611627e-02,-1.018090750978978276e-02,9.747903100382421471e+00,4.798553916847188988e-02,-9.085943509298743948e-02,-1.573051075996618664e+01
1.557800000000000011e+02,-6.999352092664920533e-02,-1.494947870528099410e-01,9.964549421594927736e+00,-2.056570051266706778e-01,-5.471816453314478634e-01,-1.553735016731006091e+01
1.557899999999999920e+02,-2.317149669114120306e-02,-1.790931275555719404e-01,9.871271700336091470e+00,-8.317171643458259878e-02,-9.119262037817310595e-02,-1.510884585848158679e+01
1.558000000000000114e+02,-4.501950033005331503e-02,-1.890498276782484888e-01,9.730618028539229414e+00,4.370236520136881464e-01,4.887253052421190458e-01,-1.498865487639379346e+01
1.558100000000000023e+02,9.529814950227902259e-02,-2.395365129953357375e-01,9.847707375153666121e+00,-9.333607422608315718e-02,4.555234378465566336e-01,-1.435166504063923831e+01
1.558199999999999932e+02,4.214471827301902868e-02,-1.744470033770307849e-01,9.936013173648674979e+00,9.835193375474854394e-02,6.740718392730370156e-02,-1.518735328975649423e+01
1.558300000000000125e+02,-3.196731074594667821e-02,-2.153614474169737725e-01,9.741749068564383052e+00,-1.255517238998486718e-01,1.807251072402113468e-02,-1.521658934467070168e+01
1.558400000000000034e+02,-2.816038034338227622e-02,-2.075357460806989685e-01,9.761593906665542164e+00,2.516966491863776301e-01,-1.307710725613098479e-01,-1.482274422587316565e+01
1.558499999999999943e+02,7.032417288224121488e-02,-1.071955823415176312e-01,9.843291379810597874e+00,6.138605911253974812e-02,-2.096925493022286369e-01,-1.468875827162592529e+01
1.558600000000000136e+02,1.010942108052981236e-01,-3.106356918235997355e-01,9.918717345690863496e+00,-2.857545080481403987e-01,2.433662442499163192e-01,-1.487265879408468550e+01
1.558700000000000045e+02,-1.843401651810293029e-01,-3.583042769115474813e-01,9.798828050574643456e+00,-2.218221559019786793e-02,-1.178066347393064012e-01,-1.477326209525568501e+01
1.558799999999999955e+02,-1.712125037821117177e-02,-2.617972348321967457e-01,9.847903986741199489e+00,-3.620083043796936545e-02,-1.056403343269463752e-01,-1.477020308260351911e+01
1.558899999999999864e+02,9.149142640100641627e-03,-8.750584245523990168e-02,9.946570575691209726e+00,-6.544859887347589944e-02,-2.148832422501678607e-01,-1.510377914892445617e+01
1.559000000000000057e+02,5.481383805825634087e-02,-1.316525058435842055e-01,9.746766779009263360e+00,8.888666892606093828e-02,1.238471214395988895e-01,-1.538356701121658787e+01
1.559099999999999966e+02,1.129924343179752357e-02,-5.592660396414113333e-02,9.704204248314274750e+00,-2.469656959033738886e-01,5.594315470929231426e-02,-1.416059027255438352e+01
1.559199999999999875e+02,4.071999158064800589e-02,-2.983572552142139678e-01,9.927006277438751525e+00,-1.610209497143858526e-01,-6.987822569133995965e-02,-1.254110235186084665e+01
1.559300000000000068e+02,-2.369591399441459134e-02,-6.543691184411710993e-02,9.873892082708806583e+00,4.007171272882368296e-01,1.573046404052967639e-01,-1.009277798811382176e+01
1.559399999999999977e+02,-8.058609552534246045e-02,-2.437980718159602211e-01,9.663190154361116058e+00,2.189302877066131858e-01,2.146395574094717151e-02,-8.075461309043946656e+00
1.559499999999999886e+02,7.841950999855668014e-02,-1.914604037204392650e-01,9.969472226353587985e+00,-2.690915366055771779e-02,-1.392289933054373929e-01,-7.693612808269454817e+00
1.559600000000000080e+02,8.159059889844837155e-02,-1.963762934870087740e-01,9.880331327183357715e+00,-8.860573136626871335e-03,1.223245890562745103e-01,-5.991991316877276041e+00
1.559699999999999989e+02,6.518337321690524655e-02,-1.629530106931894040e-01,9.858177560311437659e+00,-1.567918095857011029e-01,1.946541256324555436e-01,-4.616177043456370477e+00
1.559799999999999898e+02,8.297908141069200438e-02,2.308792651878885660e-01,9.798333797044248783e+00,1.341722561673791003e-01,-3.884413689042836570e-01,-2.838955955198461112e+00
1.559900000000000091e+02,-9.717275602551338209e-02,3.640913607136098129e-02,9.757330749247815405e+00,2.221848287346210871e-01,-8.762455986560684085e-02,-2.387282075215894750e+00
