t,ax,ay,az,gx,gy,gz
1.544000000000000057e+02,-2.034339035773385929e-01,-1.218071151330315238e-01,9.787386200622185228e+00,5.870394804857317905e-02,1.193050686660433873e-01,-1.559446873129304656e+01
1.544099999999999966e+02,-1.196126658680245480e-01,-1.912434997431657069e-01,9.704830526849299588e+00,-9.244331084808621313e-02,-2.367933989222098176e-02,-1.541203751795951682e+01
1.544199999999999875e+02,3.384538859894648533e-01,-1.507830237897708481e-01,9.802237464424409907e+00,7.955167017055481127e-02,4.486708140092277725e-02,-1.549547476445073535e+01
1.544300000000000068e+02,-3.672313763077546429e-03,-1.693032660493753172e-01,9.629491180289106111e+00,1.883801210819323613e-01,-2.948015038456434644e-01,-1.512906647291044138e+01
1.544399999999999977e+02,1.108531577253014516e-01,-1.684528995063976908e-01,9.799550591049037251e+00,2.309306881264075462e-02,-1.500162247836020479e-01,-1.522647205770357814e+01
1.544499999999999886e+02,1.007209102997765060e-01,-1.689013679913010935e-01,9.744162814028721087e+00,-1.484166559799860174e-01,-2.404018173768435462e-01,-1.457622098854861825e+01
1.544600000000000080e+02,-1.266907462058215750e-01,-5.623138704194315107e-02,9.933655309710236025e+00,3.152179086405048625e-01,-8.443200308717174751e-02,-1.580272290641785382e+01
1.544699999999999989e+02,-1.793124784335926314e-01,-1.631912337685087755e-01,9.941830631794287498e+00,-5.733371386127014691e-02,-1.420591813925675406e-01,-1.538432701060819419e+01
1.544799999999999898e+02,6.423133625895667553e-02,-6.491710103378534047e-02,9.809594714841198382e+00,1.828820252842476013e-01,2.261083021126092663e-01,-1.458125344903070442e+01
1.544900000000000091e+02,-2.220453751503901896e-01,-2.107011030108180971e-01,9.619489166646047806e+00,-2.163658776673726969e-01,2.659179563072863739e-01,-1.556711528058108662e+01
1.545000000000000000e+02,9.776591369651063679e-02,-5.487901562213833018e-02,9.699642900478290031e+00,1.298555038908722759e-01,-5.694549772832766532e-01,-1.476164109170722227e+01
1.545099999999999909e+02,-1.170553230852642429e-02,-1.902747921256297825e-01,9.809073749994668745e+00,-1.850004874319770842e-01,6.011597893750190297e-02,-1.571593144871395253e+01
1.545200000000000102e+02,6.160542355371026457e-02,-1.891005906183867435e-01,9.721189741606311330e+00,2.887984000918122907e-03,5.179526836499325215e-01,-1.480218151088826772e+01
1.545300000000000011e+02,3.034422502910076938e-02,-3.443044046071380704e-01,9.780237453228817657e+00,1.601416523024340455e-01,-3.499537959578443713e-01,-1.467771654835659412e+01
1.545399999999999920e+02,3.568284986579611101e-02,-2.569419985982991372e-01,9.975500486072427009e+00,1.816769579211494068e-01,2.242750965048920797e-01,-1.507319042104541573e+01
1.545500000000000114e+02,1.044865416056875961e-02,-2.368097637279981127e-01,9.763135448705293484e+00,1.163471264562457724e-01,1.928402044264167225e-01,-1.536239539219156569e+01
1.545600000000000023e+02,2.816017539623824270e-02,-3.475713963694642139e-01,9.814185180789303686e+00,1.955358133605666626e-01,-6.032980830821985802e-02,-1.488523731463828170e+01
1.545699999999999932e+02,4.608501354046430284e-03,-2.529685110998729503e-01,9.838473881212619787e+00,1.139886313592696487e-01,1.704094840285921564e-01,-1.474677632611203748e+01
1.545800000000000125e+02,-1.376473441091406735e-01,-9.797193725790417917e-02,9.713456075273386503e+00,-1.447746837196421388e-01,-1.039767681935071936e-01,-1.489755325300450828e+01
1.545900000000000034e+02,-3.938585671692143575e-02,-8.701234019305553735e-02,9.743859223379745416e+00,-7.321240233538230113e-02,-2.351853411614112377e-01,-1.486966903548018060e+01
1.545999999999999943e+02,2.169770748750664835e-01,-3.351878843203016656e-01,9.782313871020859253e+00,6.641702247549582938e-02,6.109597902965704375e-01,-1.474792077575791005e+01
1.546100000000000136e+02,3.141158493773917038e-02,-4.156044192192842601e-04,9.822034133530936018e+00,-1.733539648240469966e-01,-3.414145320514026111e-02,-1.495601195730503541e+01
1.546200000000000045e+02,1.142449563001761703e-01,-8.276162780228127347e-02,9.897846034813349902e+00,2.658805100430297608e-01,-4.982488824401118399e-02,-1.476909877372652247e+01
1.546299999999999955e+02,-9.831431262668516302e-02,4.136289764854936268e-02,9.699252318443118526e+00,-2.525602026384969612e-02,4.859668566095372289e-02,-1.615505998379506281e+01
1.546399999999999864e+02,-1.000552634734728497e-01,-5.601613513444510251e-02,9.811146324798171392e+00,1.415568843236148303e-02,8.225164054751983589e-02,-1.569863055150779019e+01
1.546500000000000057e+02,-1.203452424624448791e-01,2.252915710826747242e-02,9.512837629215804114e+00,-1.374745421649016530e-01,3.479200563508406674e-01,-1.520207376566590263e+01
1.546599999999999966e+02,-1.331768990387892648e-01,-1.247952276153562190e-01,9.803124227384399703e+00,9.834088949974686966e-02,2.065281084871545270e-01,-1.446921877312017735e+01
1.546699999999999875e+02,-1.622398496755902420e-01,-2.443071735235108344e-01,9.844277292677311664e+00,-1.640172495409505382e-01,-2.138347577584413794e-02,-1.559616010201668246e+01
1.546800000000000068e+02,2.332145602483472538e-02,-1.405360217215822494e-01,9.825344822070615436e+00,-2.254481988857001962e-01,2.554098614751288965e-01,-1.545676096374504205e+01
1.546899999999999977e+02,-3.558188353382118335e-02,-3.904740038897266396e-01,1.000778702609217063e+01,-1.512802806686388002e-01,3.873191513818408094e-02,-1.447791047342144921e+01
1.546999999999999886e+02,8.754948832617212573e-02,-1.827555086984923305e-01,9.744781961493254485e+00,1.206528032708891265e-03,-1.408010764683305660e-01,-1.618486130781286647e+01
1.547100000000000080e+02,-3.103964849550655200e-02,-1.711885801082801417e-01,9.774999728983019054e+00,-5.062322071399619899e-02,2.219022728816761603e-01,-1.366519023846276681e+01
1.547199999999999989e+02,-2.403239790981312185e-01,-7.012138542316694034e-02,9.788225035084193948e+00,3.185763381549187589e-01,-2.579480478321016235e-01,-1.556169227772963382e+01
1.547299999999999898e+02,4.436168006413884757e-02,-1.459598557480411563e-01,9.861231149480515157e+00,1.655478293619039865e-01,3.018275037517508252e-01,-1.515999159843508082e+01
1.547400000000000091e+02,-2.030413575816119587e-01,-2.107959926187563948e-01,9.986992527803655761e+00,7.018278631909529233e-03,1.838455797330316166e-01,-1.487253560485457449e+01
1.547500000000000000e+02,2.143943473816850576e-02,-3.064349795229600604e-01,9.917828609888935887e+00,5.217864883251389918e-02,-4.370685273518015723e-02,-1.540516737658832191e+01
1.547599999999999909e+02,-7.713575356158919316e-02,-2.419170904078856432e-01,9.759355818006605787e+00,2.104117573144436426e-01,1.257892942284880022e-01,-1.552814633316935833e+01
1.547700000000000102e+02,2.325100336574587034e-02,-1.890648626174578073e-01,9.651913188646643604e+00,3.478621107932125534e-01,-4.949263443395456735e-02,-1.514541546564735874e+01
1.547800000000000011e+02,-1.443618557267099256e-01,-2.370252533919058879e-01,9.902687186093887206e+00,1.027845470418114193e-01,1.204343308706296578e-01,-1.564585284139535126e+01
1.547899999999999920e+02,7.783255241455083739e-02,-4.288898520688226856e-01,9.830075053986963241e+00,4.589416661902428335e-02,-2.682911031859442907e-01,-1.496377771551777336e+01
1.548000000000000114e+02,3.760944630373803509e-03,-1.678340217332682238e-01,9.884156496192341379e+00,1.620709851714257146e-02,-1.341917857044748301e-02,-1.427875397713434502e+01
1.548100000000000023e+02,-3.442030790233886056e-02,-2.132774709094984456e-01,9.675580632774870793e+00,9.295871471356333127e-02,-1.672208736656134176e-01,-1.548913489547986622e+01
1.548199999999999932e+02,-1.694750524852859375e-01,-2.151499853682809493e-01,9.739091388738646771e+00,2.386433856946494070e-01,4.753526518902154163e-01,-1.498447484598126600e+01
1.548300000000000125e+02,1.810534841351558177e-01,-1.502541599404107198e-01,9.715195660302693881e+00,6.402455951073893203e-02,3.916607139553365813e-02,-1.507915626908659057e+01
1.548400000000000034e+02,-9.067927155209334900e-02,-2.122593878541866597e-01,9.884127862365257755e+00,2.592844221240254710e-01,4.379311192658513589e-03,-1.407323597538968407e+01
1.548499999999999943e+02,2.629407787610957281e-02,-5.893023733510135975e-02,9.601751346489880490e+00,-1.442451747465152700e-01,1.217577175697169773e-04,-1.495865032903880554e+01
1.548600000000000136e+02,-9.488789445761758312e-02,-2.404114360022942543e-01,9.671677856039723409e+00,-3.069555509829337003e-01,-1.369894993914792802e-01,-1.576746414000550800e+01
1.548700000000000045e+02,3.777489976128120541e-01,-2.488935878989045891e-01,9.835745771665859394e+00,1.260745375469015939e-01,1.304209007140174348e-01,-1.510866809074510186e+01
1.548799999999999955e+02,1.494213706926746793e-02,-2.424750334799295193e-01,9.614388079327419234e+00,-6.484075007699395543e-02,7.918453915045131630e-02,-1.484554896206529406e+01
1.548899999999999864e+02,-6.146877925374229223e-02,-1.489633843906313926e-01,9.837288630835754333e+00,1.353819528641522774e-01,-2.195571171880589534e-01,-1.423264021144191638e+01
1.549000000000000057e+02,6.057587975500438454e-02,-1.504899592042593937e-01,9.753600593120740569e+00,-1.190695448908856841e-01,-5.318875688350750697e-02,-1.458631153735895758e+01
1.549099999999999966e+02,7.500617971067234657e-02,-2.226456510829626090e-01,9.543397323942043542e+00,6.064417898594406248e-03,-2.306974443333371372e-01,-1.491884134701208175e+01
1.549199999999999875e+02,3.945989353582640691e-02,-1.679755213954789717e-01,9.917827960394063780e+00,-4.255903452391621156e-02,3.780337266623791381e-02,-1.479708529444869036e+01
1.549300000000000068e+02,-3.235174434423892381e-02,-1.286045584949760678e-01,9.611356995486096011e+00,1.821909195548375437e-01,3.063836345265182060e-02,-1.522497611204235746e+01
1.549399999999999977e+02,4.405071726036235980e-02,-1.067414904601435843e-01,9.866177087522791211e+00,-9.641174409022672254e-02,6.439555176398663316e-02,-1.511346618414200371e+01
1.549499999999999886e+02,-1.553415541160091222e-02,-1.782868334882774797e-01,9.909606118343639025e+00,-1.676111666852473925e-01,-1.566875697231432385e-01,-1.485921319559644260e+01
1.549600000000000080e+02,-2.529319310900609435e-03,-2.455133997755851172e-01,9.840789263742713899e+00,-8.352751657304063881e-02,6.136355034758840532e-02,-1.564526269257980928e+01
1.549699999999999989e+02,-7.854119933226566541e-02,-2.453767870848440058e-01,9.907576198667820577e+00,8.172022678556307984e-02,-3.774112219343062624e-01,-1.450943127225506757e+01
1.549799999999999898e+02,-1.463436156018144696e-01,-1.403760205659464466e-01,9.658129633827234883e+00,-8.406278352573515189e-02,7.748920522045169533e-03,-1.534727555099150997e+01
1.549900000000000091e+02,5.632470008238349424e-02,-9.417855088860124790e-02,9.733059599160633013e+00,-2.052558472586376789e-02,-1.378557492939301854e-01,-1.527419974821124349e+01
1.550000000000000000e+02,6.063001833470958030e-02,-1.515930050209632618e-01,9.932795031266920205e+00,-1.099794148304905489e-01,7.900167552436865304e-02,-1.485139516052138653e+01
1.550099999999999909e+02,1.296638769919316037e-01,-2.053275035826171990e-01,9.958570262342599122e+00,-9.962106800301429033e-02,1.437244253361785740e-01,-1.449324026276211796e+01
1.550200000000000102e+02,4.851466221955901166e-03,-2.236420933129902866e-01,1.002329706300715628e+01,3.085434824303337487e-01,-1.398877869788437145e-01,-1.471288417453365760e+01
1.550300000000000011e+02,-2.157337077705497042e-02,-8.600220647098202886e-02,9.754454522083586099e+00,3.509839225090342629e-01,2.795837816987343238e-01,-1.553281309490361828e+01
1.550399999999999920e+02,-1.409812902677742841e-01,-2.894167351445365299e-01,9.808218754153132934e+00,2.541199143105582481e-01,-4.842356619886050706e-01,-1.583612455066093538e+01
1.550500000000000114e+02,-3.952384616482417824e-03,-2.142147841855731594e-01,9.898391997046886104e+00,1.386989778574270193e-01,-1.839172398415052090e-01,-1.508460120825716722e+01
1.550600000000000023e+02,3.601981363332162206e-02,-2.266862529234142665e-02,9.776687091400662055e+00,5.821059668401301623e-02,-1.611949884847335701e-01,-1.530250817839862165e+01
1.550699999999999932e+02,-1.819738639912175104e-01,-4.972268586995007289e-02,9.595875807343679398e+00,-1.722730994880135036e-01,1.045403009915044507e-01,-1.491266228354290391e+01
1.550800000000000125e+02,1.069022289197059800e-01,-1.466481267433663305e-01,9.884370917902819187e+00,-1.199795301009904808e-01,4.770393238433096039e-02,-1.481469733607266726e+01
1.550900000000000034e+02,-7.120374862077322176e-02,-2.152713747570872138e-01,9.794285387560007550e+00,-6.551636518908375562e-02,-1.316700904547496442e-01,-1.569679648123378257e+01
1.550999999999999943e+02,-1.961002821171336022e-02,-1.919946329415569419e-01,9.850638433674435035e+00,4.358029791118291363e-01,-8.760312525573436815e-02,-1.514572314823889876e+01
1.551100000000000136e+02,5.977706503364763058e-02,-1.580333479872974289e-01,9.892725613653649219e+00,-1.563038482494132908e-01,9.469490823300122373e-02,-1.420894764535843358e+01
1.551200000000000045e+02,-7.313180268049925860e-04,4.410817420498469588e-02,9.880503778618439981e+00,5.893635280134090076e-02,-1.907145899841517500e-01,-1.409564791666131889e+01
1.551299999999999955e+02,1.403361157373088364e-01,-6.423749839480177859e-02,9.852803891864541086e+00,-3.943861590221722224e-01,2.286125837851964160e-01,-1.556173560090942409e+01
1.551399999999999864e+02,6.288061507847075848e-02,-7.746769269400874403e-02,9.834466547134219638e+00,1.130489801991003962e-01,-1.904591165286819709e-01,-1.569159751295843286e+01
1.551500000000000057e+02,-1.483321063012000077e-02,-1.821906564085229996e-01,9.873753128654380262e+00,-3.361896074098310455e-02,-1.042699144134452416e-01,-1.491566463444012491e+01
1.551599999999999966e+02,-3.120249546898458681e-01,-2.162969677576408734e-01,9.705821855063801351e+00,-3.360917716032356672e-01,1.203399327763126359e-01,-1.422479653974669489e+01
1.551699999999999875e+02,9.961866710953050374e-02,-1.863470195043165079e-01,9.776297100532465478e+00,1.839773798028249696e-01,3.824368994194807803e-01,-1.540221626965888291e+01
1.551800000000000068e+02,-1.179557021683391160e-01,-6.710958405547121086e-02,9.736028571883247551e+00,7.719928396324123032e-02,-2.061026395855283799e-01,-1.522387604699036956e+01
