t,ax,ay,az,gx,gy,gz
2.351999999999999886e+02,-7.539772953871173855e-02,1.625333447397000752e-01,9.863019711914052579e+00,-5.361207493705145988e-02,-2.898140310650145213e-01,1.480961282153138292e+01
2.352100000000000080e+02,-9.407045222807780549e-02,8.193505319888780281e-02,9.703260731878494028e+00,2.133443567751932002e-01,-1.702257244333990061e-01,1.495601374788728677e+01
2.352199999999999989e+02,5.322862544139333324e-02,1.513648807781095285e-01,9.640801450265609418e+00,7.094978693020147220e-02,1.905311451655576915e-01,1.490705119515735788e+01
2.352299999999999898e+02,-1.012727263412892403e-01,3.019850970417009561e-02,9.994924516240230261e+00,-1.083800769151251064e-01,-1.516788340644052990e-01,1.452255590434856458e+01
2.352400000000000091e+02,1.835580437856084157e-01,4.042554358743990495e-01,9.859444746190197506e+00,3.764377215807284127e-01,-2.025411559683913329e-02,1.569049555923183270e+01
2.352500000000000000e+02,9.891500401425736000e-02,1.658613536825520318e-01,9.822483886212813431e+00,-1.992049512606445250e-01,1.162059718845216277e-01,1.417018349760596863e+01
2.352599999999999909e+02,1.189493734550159526e-01,-2.152186693494601011e-02,9.931815229304442383e+00,1.798039864384425122e-03,-1.305523632261893635e-02,1.496013239004215123e+01
2.352700000000000102e+02,-6.891562561313513413e-02,1.014970561206209876e-01,9.835771855877762704e+00,2.403671579333185315e-01,-8.636329151183597119e-02,1.462762439092510114e+01
2.352800000000000011e+02,2.002965647972901678e-02,1.465998870800438170e-01,9.714833776167813184e+00,3.292361163759131570e-01,-2.129774554464593794e-01,1.458054765373031003e+01
2.352899999999999920e+02,-1.042894693605715406e-01,3.882748231550114948e-02,9.582463062601700443e+00,1.511639173223164878e-01,-9.580941162751711870e-02,1.510503380801304729e+01
2.353000000000000114e+02,2.173557941119708126e-02,3.762030157322956980e-02,9.973061203067992153e+00,2.601496723826986560e-02,-1.979450659376584820e-01,1.517248335445152563e+01
2.353100000000000023e+02,-1.767720864605385467e-01,1.322531502387638280e-01,9.935117007742343631e+00,1.867238396907913434e-01,1.450652974334413758e-01,1.456224213442422410e+01
2.353199999999999932e+02,1.062296881911296426e-01,2.207382122693288540e-01,9.793857989076169446e+00,-7.324090625116087827e-02,1.772005116456464857e-01,1.534365784778852770e+01
2.353300000000000125e+02,-6.448953238382149067e-02,2.616532805973817988e-01,9.824317908852206571e+00,-2.845410629661565549e-01,-3.601979637272262336e-01,1.488933956735858999e+01
2.353400000000000034e+02,3.028448392672305686e-02,2.782348259722206008e-01,9.907811799066331915e+00,7.642699865124660819e-02,-4.252149746613614889e-01,1.423636052996694978e+01
2.353499999999999943e+02,4.884741510318143382e-02,1.077450969502983247e-01,9.769093357223056273e+00,-2.856728984170366428e-02,3.046221011128051881e-01,1.450198173315951600e+01
2.353600000000000136e+02,-5.539640453607017068e-02,-1.008119283266264710e-01,9.739716548178677158e+00,-1.638990542843170653e-02,-1.388349666598730492e-01,1.425043211166813784e+01
2.353700000000000045e+02,-7.982609288657370461e-02,3.445103951488743266e-01,9.760501572697508621e+00,-1.881858262750774058e-01,2.302302927371782659e-01,1.499020181884780101e+01
2.353799999999999955e+02,-1.202077347957122844e-02,1.449121568003234883e-01,9.829533471525561339e+00,5.880175852433754949e-04,-2.076606090226496351e-02,1.487162725582732570e+01
2.353899999999999864e+02,8.029656838075110992e-02,1.229728781101647600e-01,9.923116636493016784e+00,6.247098247823355127e-02,2.018928160913372460e-01,1.505234057317027130e+01
2.354000000000000057e+02,-1.469854286217231291e-02,2.906649318111064195e-01,9.697778421797533355e+00,3.809331969077571212e-01,-7.502278564863255894e-02,1.458213027565358111e+01
2.354099999999999966e+02,6.029577859633884762e-02,1.354704749623801829e-01,9.770509957111928045e+00,-1.496506853089657196e-01,-1.148278428594772110e-01,1.538937136099771230e+01
2.354199999999999875e+02,7.940915391664593592e-02,2.157398881014377379e-01,9.575349398225982966e+00,1.096510394734679372e-01,3.800914365348845858e-01,1.530661269268714264e+01
2.354300000000000068e+02,-1.924528817609195627e-02,1.912718257146424905e-01,1.002361249683941402e+01,-8.692809471224915985e-02,1.881759761006156217e-02,1.454350114847422581e+01
2.354399999999999977e+02,-1.126765014014654426e-02,4.293769054153018239e-02,9.800155633172527914e+00,-5.046602908949594513e-01,3.658799222307450305e-02,1.458578892893040546e+01
2.354499999999999886e+02,1.388073787387393565e-02,5.794544228222849036e-02,9.950620111451597083e+00,-1.395813268813097807e-01,1.915256384987455984e-01,1.590126639579142243e+01
2.354600000000000080e+02,1.142404625582609523e-01,1.444720530237326162e-01,9.689477673328037000e+00,3.560521794825693420e-01,-8.930429552076274424e-02,1.454058789493033288e+01
2.354699999999999989e+02,-3.432815942959688282e-02,1.650073476527947058e-01,9.945483991054340223e+00,-1.467135977151789450e-01,-2.018705691506147426e-01,1.529005139324958229e+01
2.354799999999999898e+02,1.137750525828798848e-01,1.044982003754093280e-01,9.925276177962798485e+00,3.273609200738588493e-02,1.792823931536320636e-01,1.560360540858824052e+01
2.354900000000000091e+02,2.551274519279728842e-02,1.036037919166393068e-01,9.687307075875299489e+00,4.284457418242205162e-01,-4.789994829647950536e-02,1.570554617097386441e+01
2.355000000000000000e+02,-7.366109335075179954e-02,1.594721441445594856e-01,9.797221667220020080e+00,2.039011735107560674e-01,8.500277788368088006e-02,1.483320916646064980e+01
2.355099999999999909e+02,-4.199385122860110897e-03,9.629010811194445296e-02,9.691503581757869412e+00,5.354977271944390271e-02,3.284504660142468779e-01,1.486542311647771442e+01
2.355200000000000102e+02,-1.120634035203693923e-01,2.559137530472840316e-01,9.844656911744822381e+00,1.958536801970144764e-02,-1.324415223057985036e-01,1.542975682555136707e+01
2.355300000000000011e+02,-1.346007271613347267e-01,1.968792855983003132e-01,9.971956873524716158e+00,2.775102466603111551e-01,2.182508453146205785e-01,1.523522441859743282e+01
2.355399999999999920e+02,6.068492485540588621e-02,1.139171920037942709e-01,9.866749494154486655e+00,-1.375472574470183035e-02,4.949958715394106763e-03,1.400047515693550615e+01
2.355500000000000114e+02,7.977689213047717276e-02,2.255319875169889410e-01,9.823767787503040694e+00,1.502180375184538064e-01,1.613583008474598068e-01,1.518398217621166246e+01
2.355600000000000023e+02,-3.302374637691856199e-03,2.996743291324678871e-01,9.943798442209613953e+00,-1.723209939324104600e-01,-4.363084910522452287e-01,1.497625956097691358e+01
2.355699999999999932e+02,4.768136738616900357e-03,1.844241539977540534e-01,9.791792717271725621e+00,-9.643178648787076312e-02,5.387464689518522976e-02,1.458948306936355443e+01
2.355800000000000125e+02,-5.767636673049116036e-02,2.212716316004184613e-02,9.927790986084280789e+00,1.406291074890604065e-01,1.447352713942864078e-01,1.446573567962976803e+01
2.355900000000000034e+02,1.698794251344246456e-02,3.239328934314597008e-01,9.657195576500095413e+00,-2.190374400952061762e-01,2.158809844632943523e-02,1.569975391465458792e+01
2.355999999999999943e+02,1.981478770864455730e-01,3.336029668399437265e-01,9.873214262831066179e+00,-2.080908542461684108e-01,-3.420841504626204177e-02,1.460821258995453498e+01
2.356100000000000136e+02,1.009696720253502877e-01,2.906490719559503555e-01,9.861846488771663033e+00,4.329207680566110605e-02,-1.888965065628112061e-01,1.446101774707251586e+01
2.356200000000000045e+02,-7.605732892686650759e-03,2.296903911671037135e-01,9.737616739587670267e+00,-2.411993300888103375e-01,-3.165416156793219304e-01,1.512128547865701300e+01
2.356299999999999955e+02,-1.631893547609200232e-02,2.174021622683228183e-01,9.727868660914468890e+00,-1.528207629099610602e-02,1.975849105970614306e-01,1.463819821275361655e+01
2.356399999999999864e+02,-3.763910047715011281e-02,1.809230863760953600e-01,9.672739398277784062e+00,-2.908270609225815373e-01,-1.139050081812451876e-01,1.469961725077457970e+01
2.356500000000000057e+02,-1.411067355840429638e-01,1.763343333517251588e-01,9.742399368616105448e+00,-1.078282018917013918e-01,7.637653916572059720e-02,1.491486530187476767e+01
2.356599999999999966e+02,-4.829128472283916035e-02,5.046698186041334577e-02,9.947299723241773250e+00,2.258103448793830903e-01,-1.344660582383917502e-01,1.518863682926897241e+01
2.356699999999999875e+02,6.742317925034584103e-02,5.253264867971303709e-02,9.827881424916904862e+00,-7.054555066212171710e-03,3.583233254637555043e-01,1.465026560572416336e+01
2.356800000000000068e+02,-9.320182634750262540e-02,7.870819893170549753e-02,9.780223726014449781e+00,-2.617818148236813469e-01,-4.814141247104034016e-02,1.450005612469496619e+01
2.356899999999999977e+02,-2.800573211844655311e-02,-3.419681078407671437e-02,9.698644291768546921e+00,-8.880041783732941802e-04,-4.233799836573299280e-01,1.549260829689086094e+01
2.356999999999999886e+02,-1.118181142212856943e-01,4.191685946608503244e-02,9.904049974571305981e+00,1.691272182160142856e-01,3.502039323260579956e-02,1.499353193623488067e+01
2.357100000000000080e+02,7.854446300551748417e-02,1.660936427260172321e-01,9.914714736501485604e+00,7.704432254339543817e-02,-1.410316186454026732e-01,1.490402985703622640e+01
2.357199999999999989e+02,-1.273231628138199178e-01,-5.676961565202195970e-02,9.883203654409912886e+00,1.974988660152192099e-01,-7.698541518300949836e-04,1.491989851053994975e+01
2.357299999999999898e+02,5.926779072618362787e-02,7.145008088748225350e-02,9.690788772488113878e+00,-1.067515693002526675e-02,-9.635240693038781001e-02,1.536096800031522136e+01
2.357400000000000091e+02,1.028640610073081052e-01,1.435132330657771516e-01,9.819594510863153047e+00,-7.825643147004648914e-02,-2.045191229038157421e-01,1.551885143479532836e+01
2.357500000000000000e+02,-3.233758459044720757e-02,9.007411339722182220e-02,9.845458590223325146e+00,5.526182705125355643e-02,-1.123279063113312159e-01,1.560561041136484484e+01
2.357599999999999909e+02,-6.869234154593553687e-02,1.331741096125800550e-01,9.827770374156461486e+00,1.304752460676739390e-01,1.720910324569458749e-01,1.484537789085717918e+01
2.357700000000000102e+02,4.751179533384053411e-02,1.952170057889218990e-01,9.605023027770000610e+00,-3.461664292040576157e-02,-1.202484385431897701e-01,1.537626790178997993e+01
2.357800000000000011e+02,1.602425145626404923e-01,2.627692386864683982e-01,9.850500385610667209e+00,1.316871282849998159e-01,9.539730516814977357e-02,1.521913788116010302e+01
2.357899999999999920e+02,1.341677561049988421e-01,9.293865197090038499e-02,9.603422163893759134e+00,-2.172394883530899892e-02,1.782877880677843363e-01,1.483658486003626464e+01
2.358000000000000114e+02,-7.376044127238657114e-03,1.361712895416261615e-01,9.989134409194626585e+00,-1.857872871551004001e-01,-1.598831521640384778e-01,1.536199407837630204e+01
2.358100000000000023e+02,-8.831825694815803596e-02,-5.448925773263588179e-02,9.693614917284939736e+00,-3.575116095332427774e-02,-4.134439344166426777e-01,1.624335793139606920e+01
2.358199999999999932e+02,-2.320924690226837742e-02,2.259547056104967977e-01,9.959397013135857790e+00,4.569977274790804761e-02,-1.869764023594836302e-02,1.538569613529503144e+01
2.358300000000000125e+02,-1.689908859809542141e-01,8.045897586926827050e-02,9.791470765218109662e+00,-7.535867437368464275e-03,8.222288919180019418e-02,1.564997985383585721e+01
2.358400000000000034e+02,-5.557051247840179287e-02,2.009584444626303923e-01,9.806791861827088397e+00,-1.741665517236265504e-01,1.335117431836023438e-01,1.403662875052967784e+01
2.358499999999999943e+02,4.505459456939018420e-02,1.351550294917840400e-01,9.820951527685544136e+00,-8.038059420865657778e-02,9.223456326894548252e-02,1.577487364065772546e+01
2.358600000000000136e+02,-3.677070840365687099e-02,3.898419659329525055e-01,9.798463257772384694e+00,-2.053985908711757902e-01,3.258955811971169236e-01,1.502703771665483323e+01
2.358700000000000045e+02,-6.004491400265937751e-02,3.497211374415373220e-01,9.590454830648482698e+00,3.320251684137614373e-02,3.126547184396962220e-01,1.496108771111962454e+01
2.358799999999999955e+02,-5.548860436723181133e-03,2.295287559864968019e-01,9.775695289221976836e+00,1.509548751233804886e-01,1.383545182959960707e-01,1.523806878383540919e+01
2.358899999999999864e+02,-2.693538166732936320e-02,2.093553300009362017e-01,9.761004069948889139e+00,6.866642729437780202e-02,1.942251268246954904e-03,1.551074694368381124e+01
2.359000000000000057e+02,7.554931404303788511e-02,1.921456793558468379e-01,9.633489244074143087e+00,-3.136490419199489676e-01,8.721472458816448281e-02,1.508855971028618903e+01
2.359099999999999966e+02,-1.326756200544433884e-01,1.039909225346953153e-01,9.732393250289208098e+00,2.712108001103941124e-02,2.339066232200347484e-01,1.331494766425539567e+01
2.359199999999999875e+02,5.264675646146835253e-02,5.608364364655363254e-02,9.805097535150361310e+00,-1.947731640234251216e-01,1.371027082210374004e-01,1.140781301602486941e+01
2.359300000000000068e+02,-4.613836579044025901e-03,2.258192965612325354e-02,9.693830285527841539e+00,-3.059435877965448469e-01,1.827666167474048253e-01,1.047200582942847724e+01
2.359399999999999977e+02,4.342781606612072104e-02,3.665295829901042690e-02,9.796019526070912420e+00,3.828588471724082010e-01,-2.653665305978211361e-02,8.911741712105010649e+00
2.359499999999999886e+02,-1.389101979919142582e-01,1.253254500248887626e-01,9.796662415876902230e+00,9.543651121115201419e-02,5.714142436145992765e-02,7.220014791166171619e+00
2.359600000000000080e+02,8.830463224629910013e-02,4.281630564782580584e-02,9.783102865083238342e+00,-2.104377963898417248e-01,-4.446973709917292905e-01,6.386905319333290088e+00
2.359699999999999989e+02,5.430405441725560944e-02,-1.545181908598392273e-01,9.737445039070216524e+00,2.854588159939018543e-02,-4.441316083856444163e-01,5.315957262049931131e+00
2.359799999999999898e+02,1.673207510639245499e-01,2.898626348182161694e-01,9.793096297907597503e+00,5.704253218633540540e-02,-4.244434485077869940e-02,2.654308811359876952e+00
2.359900000000000091e+02,-8.327369035849782608e-02,3.363119972255475265e-04,9.793724623036379029e+00,-9.371845435337856911e-02,-1.148719735118557961e-01,8.792470472388328462e-01
