t,ax,ay,az,gx,gy,gz
1.704000000000000057e+02,-8.847348374730727716e-02,-2.146462083140326382e-01,9.920623783269684637e+00,1.191440000646484948e-01,-1.549178782700036949e-01,-1.575439156122611628e+01
1.704099999999999966e+02,1.510557569172714734e-02,-1.324861468638545703e-01,9.760008501773059564e+00,2.507778130972723729e-01,4.078944709976760064e-01,-1.478009056131112153e+01
1.704199999999999875e+02,-5.731958074688860150e-02,-2.584592465299384578e-02,9.770646165991863086e+00,1.740449576084727168e-01,2.297874737493063868e-01,-1.552930438381723732e+01
1.704300000000000068e+02,1.156528085980094156e-01,-1.399439395653427898e-01,9.741555951869100838e+00,-3.804703857203935446e-01,5.013649950588902060e-01,-1.568485342289078233e+01
1.704399999999999977e+02,-1.636274540840193525e-02,-1.539739479330799465e-01,9.671762315112617969e+00,4.950764230214833167e-03,-1.138358604219073672e-01,-1.582545549136026963e+01
1.704499999999999886e+02,-3.499644155058811296e-02,-1.596917778849614722e-01,9.871290698649991313e+00,1.498430243681253271e-01,-4.468540057728468406e-01,-1.400124697169624000e+01
1.704600000000000080e+02,2.615422904258137352e-02,-2.007681963154788196e-01,9.816532566409939875e+00,-2.492827026381966571e-01,1.847918866980199359e-01,-1.489102802539146708e+01
1.704699999999999989e+02,-2.005806221614070128e-01,-1.761963015888042550e-01,9.867833673460305377e+00,6.874011218223584352e-02,1.727883126666852898e-01,-1.424761793858884040e+01
1.704799999999999898e+02,1.213552945393502336e-01,-1.103327078134786754e-01,9.854061964006886498e+00,-2.933493350265052313e-01,2.069919532454383981e-01,-1.551395645194602402e+01
1.704900000000000091e+02,7.848997197486183575e-02,-7.204641031288375186e-02,9.975841492660254772e+00,-1.644404835998495087e-02,-2.765953028109590650e-01,-1.607782559391741373e+01
1.705000000000000000e+02,-7.930683907128942278e-02,-4.107056510370771241e-01,9.931409171473571718e+00,3.642440389084768970e-01,-2.973818717303712833e-01,-1.459705333366601110e+01
1.705099999999999909e+02,-1.130656510545747784e-01,-9.451335716317613156e-02,9.774861051577300231e+00,-1.222875962762071111e-01,7.795011464873885521e-02,-1.432015891820628362e+01
1.705200000000000102e+02,-1.009995735445766291e-01,-1.961248370269061125e-01,9.804353299709399394e+00,1.500303655147084414e-01,-1.627326039079671494e-01,-1.480795180264812139e+01
1.705300000000000011e+02,-1.409946401889573264e-01,-1.172123017357804969e-01,9.773177735475645278e+00,-2.720644621769970073e-02,2.985867054590454206e-01,-1.462020483262472936e+01
1.705399999999999920e+02,-1.696735942751043946e-01,-1.306225663156392047e-01,9.798562962441591750e+00,1.883079507853126222e-01,3.223338914660879850e-01,-1.525016561073666566e+01
1.705500000000000114e+02,-1.442407980236023179e-01,-1.798425144599010983e-01,9.855467495269287781e+00,3.888488817710950562e-01,-2.611208651645011147e-01,-1.584547894762682674e+01
1.705600000000000023e+02,-2.647112108055182378e-01,-1.141028292716146919e-01,9.877568743628685866e+00,-3.864596768689195216e-01,1.637448559986406371e-01,-1.521502893056141659e+01
1.705699999999999932e+02,-3.636101362420109118e-02,-1.381461723766487515e-01,9.945490636266251627e+00,-1.662794713482264319e-01,-1.598200856545366477e-01,-1.470134798654437347e+01
1.705800000000000125e+02,-1.365565361154631209e-02,-1.704329851555144715e-01,9.946374471038810228e+00,-3.757539640371834744e-02,7.752605097935409695e-02,-1.475501221235667160e+01
1.705900000000000034e+02,1.281076392091181348e-01,-1.776006409767651451e-01,9.806964230780502945e+00,1.817537152080711260e-01,5.714711844462480594e-02,-1.480159186383711045e+01
1.705999999999999943e+02,9.870843417498008365e-02,-2.653929336332492284e-01,9.740488184731372456e+00,-5.177752578797805566e-02,1.826373893133745874e-01,-1.523801557217972302e+01
1.706100000000000136e+02,-7.339942788786428529e-02,-1.652329720074584563e-01,9.835643913646833880e+00,5.381203916758313666e-01,5.917600631773588943e-02,-1.481327415147078774e+01
1.706200000000000045e+02,-2.476556038373802643e-02,-3.657515029267895956e-01,9.760013682554289360e+00,-2.662798239701421044e-01,7.365623980084216871e-02,-1.464621914141009995e+01
1.706299999999999955e+02,1.103092233558876506e-01,-1.378757159830334145e-01,9.885261898297288852e+00,9.538646048543944489e-02,-1.810857245965564188e-01,-1.499957588882211290e+01
1.706399999999999864e+02,-4.485025340630541257e-02,-9.175819598443828162e-02,9.936271450695985052e+00,-7.570507821576553942e-03,1.815332967754164362e-01,-1.433207091009150602e+01
1.706500000000000057e+02,1.705878131532736000e-02,-3.115399422298603671e-01,9.870952281856760990e+00,3.098394826831097487e-02,9.217738828966015596e-02,-1.455955261686015945e+01
1.706599999999999966e+02,-6.059441628470908781e-02,-1.943513144826153893e-01,9.831544567794203715e+00,8.652538369161397180e-02,-4.770474322684686852e-02,-1.548365476278142339e+01
1.706699999999999875e+02,3.923805481997368061e-03,-2.472104834328253675e-02,9.868365598559849516e+00,1.965692878680360967e-01,-3.140559368511442601e-02,-1.558746825715310358e+01
1.706800000000000068e+02,8.368981997688686170e-03,5.161586048090269219e-02,9.790424660916924537e+00,-1.836141629474717651e-01,1.070175970908116003e-01,-1.489414440725175837e+01
1.706899999999999977e+02,-3.489217264410125058e-02,-1.763267109602417726e-01,9.734287845911662629e+00,-2.905758069177978298e-01,-2.758379502531570493e-01,-1.533948459775196760e+01
1.706999999999999886e+02,1.065909787151623767e-01,-1.604217749852093200e-01,9.851892731412268844e+00,-5.118755656417286470e-01,-2.529710054447067979e-02,-1.502737250783303757e+01
1.707100000000000080e+02,-8.643077150294703470e-02,-1.738001023177671300e-01,9.943258546728735325e+00,-1.535805949671521509e-01,7.966086832613433755e-02,-1.571900606377070098e+01
1.707199999999999989e+02,1.153397903938367837e-02,-1.516143089106079256e-01,9.763211135785670791e+00,3.809419959544813605e-01,2.354519374176379243e-01,-1.587051016020456018e+01
1.707299999999999898e+02,1.783500013296289710e-01,-4.310662859256579604e-02,9.777151892981681414e+00,-2.309193851226734040e-01,-4.024393428955254648e-01,-1.460688860488942353e+01
1.707400000000000091e+02,3.112986174303915277e-02,-1.663315073964106439e-01,9.896540499474811625e+00,-7.281751391004009921e-02,-2.323735167317051986e-01,-1.527137490155356048e+01
1.707500000000000000e+02,-7.965213077035429579e-02,-3.038074880718213411e-01,9.803336571456481963e+00,2.070466653322226847e-01,-5.789146875930255200e-04,-1.493436484976849954e+01
1.707599999999999909e+02,3.475157982269089230e-02,-1.409528123512974462e-01,9.804502779489542519e+00,-2.895084520120211891e-01,1.481748766492694547e-01,-1.464375767542596840e+01
1.707700000000000102e+02,2.432026975180124340e-01,-2.051521360540878303e-01,9.744240600648039319e+00,-5.181621907528219384e-02,-2.825199754934774182e-02,-1.472298718165255416e+01
1.707800000000000011e+02,3.922723036183155786e-03,-2.786614753069993622e-01,9.861947691503473834e+00,-3.512674174933971133e-02,1.449677924731255230e-01,-1.516480924056506474e+01
1.707899999999999920e+02,7.936207477280432521e-02,-2.786263548578620242e-01,9.797814293943066133e+00,-2.362018357605827623e-01,-1.032975184994417844e-01,-1.563754645199716720e+01
1.708000000000000114e+02,5.182484353656514236e-04,-1.776717322107974062e-01,9.667623392228799517e+00,-1.034657017340272489e-01,2.280129118057413473e-01,-1.530520824964950499e+01
1.708100000000000023e+02,2.754510983633139468e-02,-1.039880870411787478e-01,9.868287871862625238e+00,3.771914780119587918e-01,-1.158906533365849367e-01,-1.589095989340244230e+01
1.708199999999999932e+02,-7.825521553347335180e-03,-1.095554749564751074e-01,9.885148161148732626e+00,1.865354204388359194e-01,2.251116974839089679e-01,-1.493983388793807343e+01
1.708300000000000125e+02,-1.018044537405063815e-01,-4.609458456983768493e-02,9.786220114692421035e+00,1.499242333090912982e-01,2.554523901060733460e-01,-1.536546520090154822e+01
1.708400000000000034e+02,3.739578630598228148e-02,-2.423547319616799756e-01,9.902624874632392604e+00,-3.542414334454748737e-01,8.706187936373988023e-02,-1.437892877198823882e+01
1.708499999999999943e+02,-1.223014461434781541e-01,-2.036495575862531382e-01,9.688596871386597087e+00,8.596964169908827280e-02,2.761699744004493529e-02,-1.557251773321868704e+01
1.708600000000000136e+02,-3.124401417867776753e-02,-1.031201405560691342e-01,9.721622290773279218e+00,3.061861836398080960e-01,4.807645325559837257e-01,-1.484163371288440736e+01
1.708700000000000045e+02,1.911698938860534047e-01,-9.458962290102422565e-02,9.766366243029423799e+00,-9.697354584125029986e-02,2.176725378821839918e-01,-1.568877603378787633e+01
1.708799999999999955e+02,-7.196565296958614202e-03,-2.187627605396785246e-01,9.816800697172531898e+00,-5.675074775598712429e-02,1.561663679257577209e-01,-1.382944477675212447e+01
1.708899999999999864e+02,-9.232417043709195692e-02,-2.353647388930400486e-01,9.846622392916112076e+00,-4.726683107639969572e-01,-1.935873318469787385e-01,-1.453188698649993071e+01
1.709000000000000057e+02,2.408856001955021753e-02,-1.195477423139818529e-01,9.761099301932523176e+00,3.282881999604226886e-01,2.294415898782472818e-01,-1.462406600800071921e+01
1.709099999999999966e+02,-5.535820109362975944e-02,-7.873904564344164081e-02,9.876500342903307583e+00,2.488335536381141577e-01,-2.675523461613370582e-02,-1.518196609985141521e+01
1.709199999999999875e+02,1.086113580418209511e-02,-1.904184061138306516e-01,9.757830175874806500e+00,-3.584441054001154953e-02,4.211661499516413665e-01,-1.526108144847458448e+01
1.709300000000000068e+02,-1.176547973941243497e-01,-1.207228702813620130e-01,9.568936398205798000e+00,3.512011430239714294e-02,-6.500534978255383123e-02,-1.518494999014469471e+01
1.709399999999999977e+02,7.796750143719669013e-02,-1.663828673230850208e-01,9.678044834204902358e+00,5.657671892294260929e-02,4.925378143568262534e-02,-1.597915917830717092e+01
1.709499999999999886e+02,1.246393439478483967e-02,-2.318252457454880733e-01,9.972710623758727522e+00,1.277715571094529545e-01,-4.060489940187872460e-02,-1.431459546453950260e+01
1.709600000000000080e+02,-1.001898750674135724e-01,-9.314510877763773622e-02,9.736743770836072898e+00,2.956895488546206277e-03,1.371855597024310147e-02,-1.552515534219001125e+01
1.709699999999999989e+02,3.597229251435779540e-02,-1.894014963302498022e-01,9.750328107329874427e+00,4.126442418089570907e-02,-3.515253724153746383e-03,-1.483478256400876383e+01
1.709799999999999898e+02,1.935177501963806224e-01,-3.182232871572149291e-01,9.664415423347193723e+00,-2.343981490736902762e-01,-3.573642686932504420e-01,-1.429032694979270524e+01
1.709900000000000091e+02,-7.958740858336678381e-02,-2.324713350314080718e-01,9.867271038991168197e+00,9.697233309326480644e-02,-1.285991309296354301e-01,-1.507560285083158114e+01
1.710000000000000000e+02,7.576285725975442920e-02,-3.915701233263197967e-01,9.767321160696164739e+00,2.694655997005194759e-01,-1.440028307320689871e-01,-1.476871145318139256e+01
1.710099999999999909e+02,4.179346606235085498e-02,1.037315830888093371e-01,9.800516930285215977e+00,-9.162641581919944711e-02,7.979949830802270105e-02,-1.522873979672683475e+01
1.710200000000000102e+02,4.032987430517862015e-02,-3.675210883027679731e-02,9.798210421500154865e+00,5.880626099139490276e-02,8.240968727298432495e-02,-1.477354838907670498e+01
1.710300000000000011e+02,9.002590232205655296e-02,-2.986169708843371406e-01,9.641081135401762481e+00,-2.616713082412897712e-02,-1.784076517659253236e-01,-1.532419405943980983e+01
1.710399999999999920e+02,-2.770011830038617007e-02,-2.256483198245500810e-01,9.757734381944635160e+00,-1.582159193761391025e-01,1.554387291027269358e-01,-1.506557024455460514e+01
1.710500000000000114e+02,1.523351598272671727e-02,-1.441659379981721500e-01,9.931883771938453620e+00,1.444540017630243922e-01,2.182689531112529460e-02,-1.529574594048370528e+01
1.710600000000000023e+02,9.825901506819355313e-03,-6.711985819414706400e-03,9.824757527617846264e+00,-1.231043490814411924e-02,1.074127237850811406e-01,-1.538489770180074068e+01
1.710699999999999932e+02,-8.557315886428748519e-02,-9.424358523079634509e-02,9.621971873941824072e+00,1.914336303668377759e-02,8.648801652295762254e-02,-1.430471731765460675e+01
1.710800000000000125e+02,4.587974992733392238e-02,-1.445875871319962924e-01,9.795552747185784170e+00,4.552800120493993852e-01,-2.406335228009961469e-01,-1.511292007475360499e+01
1.710900000000000034e+02,-3.624418210905924753e-02,-2.255113523404059239e-01,9.765476955655971736e+00,2.008252704851893056e-01,-7.240673422141965035e-03,-1.598064552763574930e+01
1.710999999999999943e+02,1.830218409940541358e-01,-1.188397151169881399e-01,9.770031146068815175e+00,-2.922811195750977808e-01,1.485115286179828631e-01,-1.529510629995753490e+01
1.711100000000000136e+02,-5.078595818706850562e-02,-1.228692035965465029e-01,9.750855991742410467e+00,-1.414998231950087837e-01,5.060441080723496882e-02,-1.500103558269354664e+01
1.711200000000000045e+02,-1.320308076128229036e-01,-1.632345071788399438e-01,9.750579741217043406e+00,-1.020830884303220998e-01,5.362492496315288126e-02,-1.493068984920767051e+01
1.711299999999999955e+02,1.120416231681252706e-01,-1.746352588015737117e-01,9.795299473780229249e+00,-1.346217330470723950e-01,2.086601876695637348e-02,-1.555527665049474173e+01
1.711399999999999864e+02,-7.442460611397717918e-02,-2.113755513746808090e-01,9.744594576384404405e+00,-9.807158693029899288e-02,-1.493813170507079513e-01,-1.640442977322502216e+01
1.711500000000000057e+02,-1.213291956053920012e-01,-3.798037683906635431e-02,9.896301349446165574e+00,1.955803209514275220e-01,1.173613754515541174e-01,-1.488794894653695167e+01
1.711599999999999966e+02,3.875279582421452262e-02,-3.358239548557439558e-01,9.740031053401205341e+00,2.179696803163975738e-01,-2.185064026143588300e-01,-1.528814074596304629e+01
1.711699999999999875e+02,1.332494359950693874e-01,-1.358139290320385939e-01,9.690513968079626395e+00,3.638972112774084278e-01,-8.142056992935046977e-02,-1.505993101914874899e+01
1.711800000000000068e+02,7.373477600580713442e-02,-1.649865959326526632e-01,9.924636026054688642e+00,1.199694860275358349e-01,-2.662814025249359839e-01,-1.587700082114142219e+01
1.711899999999999977e+02,-5.717468894180819522e-02,-3.635166029475147553e-01,9.761551060882633024e+00,2.339837569907882442e-01,8.510622210227795914e-02,-1.568241335212645993e+01
