t,ax,ay,az,gx,gy,gz
1.408000000000000114e+02,-2.509714440299982974e-02,2.858710567984516782e-02,9.787206009088810887e+00,-6.736800559937576593e-02,-3.050221965236168398e-01,5.391720650656899316e-01
1.408100000000000023e+02,-1.298643394988883148e-01,-1.167600062396232652e-01,9.917916982438251594e+00,-1.395815213503519281e-01,-5.728142450383415935e-02,-2.464989935203067140e-01
1.408199999999999932e+02,-1.791035536326507707e-02,-7.411389231397691457e-02,9.624144757623882995e+00,-1.612220832436620233e-01,-1.300112149455885484e-02,-5.644697705062340365e-01
1.408300000000000125e+02,1.408910757482925713e-01,7.527573729878189734e-02,9.872033614267957446e+00,-2.186455832346160255e-01,2.005933332681169023e-01,8.973546609470955948e-02
1.408400000000000034e+02,4.592428063793110860e-02,6.058212230973023665e-02,9.909440251793990129e+00,6.778251673495298835e-02,-3.893727363847018230e-01,-1.936624013057760829e-01
1.408499999999999943e+02,-7.207847968099884151e-02,2.995938051514847322e-02,9.797880745168258798e+00,-5.480415352622931835e-02,-7.881849280137012692e-02,-1.655241108506397968e-02
1.408600000000000136e+02,5.923407698213905420e-02,1.302434710612727364e-01,9.794075390904067646e+00,4.713704988467199986e-01,-3.817213478328796983e-01,2.634468003493344312e-01
1.408700000000000045e+02,-7.777821637043991210e-02,5.744938087727522597e-02,9.798069163961411476e+00,-3.293307818029871104e-02,1.250882551579127477e-01,6.602188669450479441e-01
1.408799999999999955e+02,-2.763444163608800297e-01,1.405530046622390505e-01,9.864387804433055962e+00,-1.629816816656036726e-01,-2.684714812973741371e-01,1.416009934875073206e-02
1.408899999999999864e+02,-1.233483909920126270e-01,-9.052402934042080851e-02,9.937288821677702444e+00,2.123309354081960310e-01,4.955115008636482715e-02,-3.886715401332178632e-01
1.409000000000000057e+02,4.584404018532979574e-02,2.400861597814423626e-02,9.770962800200647891e+00,-2.862224196482325567e-02,3.701773557644673085e-01,-1.920362703263087112e-02
1.409099999999999966e+02,7.723360402943095504e-02,9.818003461767718307e-03,9.887401705695003429e+00,2.108333881085689421e-01,1.006165680670178530e-01,-5.934730200820853563e-01
1.409199999999999875e+02,1.717647686680806585e-01,-1.212255802988770476e-01,9.754009160831751402e+00,-4.519725182792973250e-02,2.462419450594836856e-01,-2.587562749283885480e-02
1.409300000000000068e+02,3.411796290033564105e-02,1.776093516300981112e-01,9.817494989685471296e+00,1.319562451395854888e-02,2.757975047284763614e-01,2.012070709152549708e-01
1.409399999999999977e+02,1.347159293408604908e-01,-4.567302960999092970e-02,9.773780542100467983e+00,-3.384434184699699477e-01,2.652636555779798455e-02,-6.175873974870135230e-01
1.409499999999999886e+02,6.300931581315044605e-02,3.911685572746757128e-02,9.850660019372249110e+00,-1.276333598698490002e-01,-2.366443901324052357e-01,-5.436420566540427490e-01
1.409600000000000080e+02,9.374027104720325521e-02,-4.880258199061552477e-02,9.805918824251092403e+00,-1.882947487872226044e-02,3.697146719035149243e-01,3.785071603134636531e-01
1.409699999999999989e+02,1.101720486589079367e-01,1.139430998944798851e-01,9.708185266525019230e+00,-5.870173471467859255e-02,1.510692180513937832e-01,2.461255299777637962e-01
1.409799999999999898e+02,4.870171564202809000e-02,-2.552640702962539337e-02,9.729834523369474297e+00,6.072723786685684660e-02,1.241317400353167816e-01,-1.530686265726670103e-01
1.409900000000000091e+02,1.074848721680635999e-01,-2.614070221594143664e-02,9.877647905321300215e+00,8.812496152001008526e-03,-1.323114720889656364e-02,-7.396542211278401835e-01
1.410000000000000000e+02,-6.985530493827175891e-02,2.154164143851543169e-03,9.735072638736092188e+00,4.503532142796785875e-02,7.053024293364704156e-02,-5.883936639471828434e-01
1.410099999999999909e+02,-2.426617960231199911e-01,8.454187870361276266e-03,9.701705072469790636e+00,1.123429386399475149e-01,-5.446037964315748603e-01,-1.994769391673232861e-01
1.410200000000000102e+02,6.507397040931588161e-02,-5.484793023097686571e-02,9.869636742211074676e+00,-5.872138334873934495e-02,3.774203237365337249e-01,3.622059789870712421e-01
1.410300000000000011e+02,3.747785308586731173e-02,-7.719542312115294791e-02,9.885003705642029459e+00,-4.633926155908627692e-02,1.722551105531698878e-01,3.924839359079342338e-01
1.410399999999999920e+02,-8.752720985750020444e-02,-5.391632697909189142e-02,9.718133965492631532e+00,-1.998930062217110504e-01,5.007070747945624456e-03,-1.132420929273099675e-01
1.410500000000000114e+02,-1.262452401664661272e-01,-1.553024267011087270e-02,9.723656912420885590e+00,3.451412593096077064e-01,-7.484992055255551557e-02,-9.299065225595432027e-01
1.410600000000000023e+02,1.306748998926192222e-02,2.716168212640251642e-02,9.832337858679647269e+00,-4.583634296731687319e-01,-1.266267201738925097e-01,-3.085868115137506765e-02
1.410699999999999932e+02,7.169219523855106802e-02,-4.063386184706798548e-02,9.889073214586664662e+00,2.664233198252127788e-01,1.815764999038246563e-01,1.143483239065897328e+00
1.410800000000000125e+02,5.199100723365851495e-02,-1.138036941141882530e-01,9.759931503174550826e+00,-3.680679409044542577e-02,-4.070293239735325343e-03,-9.234161196501282642e-01
1.410900000000000034e+02,-1.019645335745039960e-01,-1.208339239530301923e-01,9.771709925052451950e+00,4.027754474376522009e-01,-4.373571026689133112e-01,-2.724270048683246626e-01
1.410999999999999943e+02,-7.953836793707057262e-02,-9.134581673515179689e-02,9.727244732979826836e+00,3.119417271846718354e-01,-2.101512157918197232e-01,-2.897981265120230798e-01
1.411100000000000136e+02,6.694853551747170783e-02,3.312395425541283384e-02,9.951874175395820643e+00,3.599394689853583351e-01,-9.742127953199133938e-02,2.590700884829897910e-01
1.411200000000000045e+02,7.268612506370075027e-03,8.767227763889140491e-02,9.804632351049168193e+00,-2.058085744311353160e-01,9.200100426779107832e-02,-4.738290875116076273e-01
1.411299999999999955e+02,1.060153914745751158e-01,-1.103835958269361317e-01,9.824203151305924919e+00,-2.211703375869202848e-01,2.592696880161244471e-02,9.330290832742929030e-01
1.411399999999999864e+02,-3.232719397152675894e-02,4.251269608633317931e-02,9.780141263104813021e+00,1.521371568759309900e-01,-8.407920610255074922e-02,1.161760428773459947e-01
1.411500000000000057e+02,7.395248008042937249e-02,3.705994109968326761e-02,9.777704510381392211e+00,-5.214491037049215350e-02,-4.979874705508938182e-01,1.172844564234034881e-01
1.411599999999999966e+02,-3.964982602951878238e-03,1.835322136187321207e-01,9.882989349655600719e+00,1.523464424595102895e-01,-4.022058567385702887e-02,5.104025265949545531e-01
1.411699999999999875e+02,-7.228012370979725043e-02,2.323593454663307467e-01,9.808073524367513230e+00,1.904578554865491921e-02,-1.359005501051492593e-01,3.389142331265406205e-01
1.411800000000000068e+02,9.281628335101158034e-02,1.061573591739237293e-01,9.891261163040748983e+00,-1.605917776462223445e-01,-3.071678025103537490e-01,-2.299022855311469160e-01
1.411899999999999977e+02,-9.925609153928416362e-02,7.041251203902737510e-02,9.891938662121958714e+00,1.662612320359552476e-01,1.795108073143261099e-03,8.173754787452133796e-02
1.411999999999999886e+02,7.415189593111090605e-03,5.325123530335994920e-02,9.758744819700266859e+00,-1.588738447301028811e-01,5.227720630487538156e-02,-9.293778789178620547e-01
1.412100000000000080e+02,1.774864154778142342e-02,-7.313994853236764626e-02,9.724991796808021505e+00,2.680582840276961309e-02,2.055719602588449435e-01,5.236140624133955868e-01
1.412199999999999989e+02,-1.202887115037963757e-02,-1.144218816784922099e-01,9.732553299425628524e+00,-2.674387651391905152e-01,-2.988762423827088233e-01,-3.042220435745358054e-01
1.412299999999999898e+02,9.907995001253634693e-02,-1.558353703945795088e-01,9.529333893530282040e+00,5.080128845787516140e-02,-2.274322018569571169e-01,-1.840053980710498836e-03
1.412400000000000091e+02,5.726153920568272104e-02,1.574015125419577985e-02,9.958300923951055594e+00,3.144894357343421820e-01,2.397790793388542285e-01,1.339964131764538602e-01
1.412500000000000000e+02,4.534284892223496011e-02,-7.517308870708647173e-02,9.802946539326867992e+00,-3.652796420021048873e-01,-1.513513641935518295e-02,5.505479842048758288e-01
1.412599999999999909e+02,6.846306437172907169e-03,7.939412831248598978e-02,9.943867103182514100e+00,1.212528688307293046e-01,5.514045458309621561e-02,-2.116503728840334400e-02
1.412700000000000102e+02,1.856327713362487253e-01,-1.124368721089185064e-01,9.961392363886739432e+00,-1.478230044835055212e-01,2.736369513880527182e-01,6.555633305883790118e-01
1.412800000000000011e+02,1.464667258881800771e-01,2.533655985455795026e-02,9.876913238237310821e+00,2.150015189750255906e-01,-1.534514039766766147e-01,-4.697206933041962046e-02
1.412899999999999920e+02,9.194291158384526597e-02,-7.634017548988000779e-02,9.775971048263039975e+00,-1.192383941295577926e-02,-2.951368096891843762e-01,7.194728025384032888e-01
1.413000000000000114e+02,7.551027307933962096e-02,-1.378614876992645677e-01,9.830207322151238714e+00,2.121678825672628221e-01,-1.015269372034204032e-02,-2.037193585462717393e-01
1.413100000000000023e+02,-6.022581772820460172e-02,-8.134121616728179349e-02,9.801037252608560735e+00,-1.515602599219390278e-01,1.140998089747541355e-02,4.091995265768151868e-01
1.413199999999999932e+02,-4.907920422681875255e-03,-6.472443106010060399e-02,9.881756696018497266e+00,9.173303602702126761e-03,1.053027548798156909e-01,7.657669907517759000e-01
1.413300000000000125e+02,6.358209031476184936e-02,-2.100736012663760414e-03,9.959568230846373993e+00,-8.315078509013258679e-02,1.825626761470308668e-01,1.282380662203142618e+00
1.413400000000000034e+02,1.051581045426493860e-01,-6.044844758406217600e-02,9.898585667808173838e+00,5.743830372354170877e-02,1.113853845513806812e-01,1.569018652152157633e-01
1.413499999999999943e+02,8.920478034272733003e-02,-9.264092868191575736e-02,9.945782012922409265e+00,6.006206110885713850e-02,3.037739854237884174e-01,1.148343659573686670e+00
1.413600000000000136e+02,5.809622947236015023e-02,-8.016011560419936122e-02,9.759994375463806549e+00,3.988271208453716965e-01,3.889697327223483603e-01,2.780606208482681585e-01
1.413700000000000045e+02,2.000625932214334102e-01,-3.731864628221381874e-01,9.812901703778351248e+00,2.172067260739247441e-01,-4.396194120168592234e-02,8.390552800731401750e-02
1.413799999999999955e+02,-1.355881430288333189e-02,-3.795323435533792117e-02,9.814554106764850516e+00,4.963269508578407874e-02,-1.147176556450484192e-01,4.919832967775534249e-01
1.413899999999999864e+02,1.013189804510388897e-01,3.382808274044487792e-03,9.948635042258315409e+00,3.100516317928757037e-01,1.232127307649104053e-01,-4.759960820778272317e-01
1.414000000000000057e+02,8.914400467341643264e-02,-4.218060809737116112e-02,9.808713934109082544e+00,8.602335104029115720e-02,4.986556212820961176e-02,9.778942873661613522e-01
1.414099999999999966e+02,4.440659779233607080e-02,1.981213315300904554e-02,9.808351453327563974e+00,2.547882507287257403e-01,-1.209364238713436616e-02,6.162795226365656021e-01
1.414199999999999875e+02,4.805002331356585804e-02,9.652058867367917239e-02,9.751285242154649424e+00,8.739980924842408183e-02,6.345325831044964504e-01,-1.112636600221046157e+00
1.414300000000000068e+02,4.603448048256440078e-02,1.059468795980112177e-01,9.832487617083840448e+00,-1.141958342840129759e-01,1.936064020545819053e-01,-3.289130271338372435e-01
1.414399999999999977e+02,-7.082363191646834366e-02,9.776047702045653764e-02,9.840683273289162258e+00,1.675803242077883171e-01,-1.872405157862559177e-01,-7.949032726005865745e-01
1.414499999999999886e+02,4.008610114668265806e-02,-6.154375708146617163e-02,9.848993865730644615e+00,-6.196085920234974120e-02,2.106814493321222947e-01,-7.439518671811906625e-01
1.414600000000000080e+02,7.482806471485979605e-02,-9.287661602998989463e-02,9.879522725941100703e+00,-2.767788754766437598e-01,-1.155920678976566224e-01,-1.603622005413553597e-01
1.414699999999999989e+02,3.219364441896375995e-02,-5.612225364476682021e-02,9.774889807720956725e+00,-1.238072738474881584e-01,2.450445777482330723e-01,1.514071322137894304e-01
1.414799999999999898e+02,-1.842082757608789478e-01,6.031525267991301453e-02,9.915568180177908530e+00,-1.833646036759780662e-01,6.410011940256669927e-02,-4.836067887022289513e-01
1.414900000000000091e+02,-1.586168866940866895e-01,3.115945929281678517e-02,9.679721786993289001e+00,-1.137833376705324473e-01,-1.797436751081886719e-01,-3.719259517953586447e-01
1.415000000000000000e+02,-8.182319835023399435e-02,-7.621261590455147283e-02,9.990419239631750159e+00,3.227972899091338110e-01,-5.492973096468575234e-01,1.050226836220347293e+00
1.415099999999999909e+02,-1.119272504050410066e-02,1.077032128092101221e-01,9.584601434631915495e+00,-6.703958332698480016e-02,2.177482005135310816e-01,1.109671995967717734e-01
1.415200000000000102e+02,-7.645469051075114153e-02,-1.108610947892085669e-01,9.622833593609158243e+00,1.690418710972623750e-01,1.519895574988026077e-01,2.999500599677663026e-01
1.415300000000000011e+02,6.459120154192019014e-02,-5.224833467303333090e-02,9.852768281678413231e+00,7.288313341941697610e-02,-1.651298256526779196e-01,-2.048042736547820153e-01
1.415399999999999920e+02,1.191998915532282988e-01,2.090747515677273197e-02,9.706669493205183130e+00,8.407899200711869969e-02,6.509163130550553455e-02,-1.133506187707909729e-02
1.415500000000000114e+02,1.333669741147954502e-01,8.335638436637168858e-02,9.803923469942208868e+00,1.963045038930361433e-02,7.947357906451783804e-03,-5.580168473569058207e-01
1.415600000000000023e+02,3.368112723874649300e-02,1.158340007521398568e-01,9.822817340230800554e+00,-1.060067951278783477e-01,-7.806200704729800155e-02,-2.890046439971483139e-01
1.415699999999999932e+02,1.084161016954865997e-01,3.046705427879700320e-02,9.987763764491836227e+00,1.600321305209035927e-01,1.079392245777542753e-01,-1.195748395836217393e+00
1.415800000000000125e+02,-5.625517736187333334e-02,-1.237225839579208231e-01,9.917694942568582306e+00,2.062923332412074096e-02,4.201513129053802698e-01,-5.362468086652825150e-01
1.415900000000000034e+02,-1.516536720342039762e-02,1.058825511943066594e-01,9.684062321749244973e+00,2.610701192235141410e-01,4.631854259259476914e-01,6.939550406807812877e-01
