t,ax,ay,az,gx,gy,gz
2.671999999999999886e+02,-1.992234791534617522e-01,2.536508418139865051e-01,9.855824109812543199e+00,9.500570550008095860e-02,-2.486092711183903736e-01,1.633595692669286947e+01
2.672099999999999795e+02,1.133799919695436531e-01,2.099574866759448266e-01,9.932701130386398347e+00,2.009904614943057721e-01,-7.133346836132080371e-02,1.467786841460534930e+01
2.672200000000000273e+02,6.039734591097193489e-03,2.326648013033406626e-01,9.784339734415036460e+00,1.683021879165745235e-02,-6.297569926679834340e-02,1.567780778014257592e+01
2.672300000000000182e+02,-1.342909319798393092e-02,1.341846424580523389e-01,9.970131241037984537e+00,-3.495658073239005792e-01,-3.450646881247623754e-02,1.497421364687087220e+01
2.672400000000000091e+02,7.549733244707940161e-02,3.420802177454631554e-01,9.679284709623017235e+00,1.506157760811704105e-01,1.303488043151811160e-01,1.521345621418807958e+01
2.672500000000000000e+02,5.175334457625059559e-02,9.518124678949928252e-02,9.584182398470877828e+00,-4.387131066636629217e-02,7.188105490941474295e-03,1.467997083616976184e+01
2.672599999999999909e+02,5.067396927075554225e-02,3.947716104056326891e-01,9.771608379636141706e+00,-5.772467436951279895e-02,2.342779204492164424e-01,1.471871845105005860e+01
2.672699999999999818e+02,-1.563429945583842424e-03,2.113504569288117696e-01,9.972026718365967213e+00,4.496005566261365161e-01,1.561345035398807590e-01,1.442051742291519645e+01
2.672799999999999727e+02,1.047099512200647294e-02,2.812400337013311602e-01,9.899551003393447957e+00,2.160152846985080866e-01,-9.211110777584590251e-03,1.506173476772414510e+01
2.672900000000000205e+02,8.443089442920131971e-02,3.121585710008706327e-01,9.749982469896375292e+00,7.001553139589844488e-02,-4.024835705915938422e-02,1.532110570917656922e+01
2.673000000000000114e+02,5.320483836433963915e-02,2.445874701830799691e-01,9.676178756394111957e+00,-5.348536636571086383e-02,-4.514524965732760742e-02,1.460404137194435492e+01
2.673100000000000023e+02,1.728275832628554387e-01,3.542784784100734274e-01,9.594702759354957422e+00,3.214292399445772136e-02,3.025307050054696911e-01,1.430464596190216042e+01
2.673199999999999932e+02,1.401378036100385006e-02,2.613838418397314012e-01,9.787948181062105846e+00,-4.445093707328022781e-01,-8.220887566065099294e-02,1.467543261622082795e+01
2.673299999999999841e+02,6.506960908912312602e-02,2.400646421741656211e-01,9.741010266729135836e+00,2.096973646637551869e-01,4.273348782622587994e-01,1.537698604813283687e+01
2.673399999999999750e+02,-1.229884575377515089e-02,2.137669527242978540e-01,9.862105846072712012e+00,-1.704264379794167006e-01,1.103339970463626668e-01,1.387589838883151216e+01
2.673500000000000227e+02,3.237101518004510681e-02,2.050297164027391483e-01,9.910134610113527032e+00,-2.709922955922242083e-01,3.736559902774735237e-02,1.484015742712239394e+01
2.673600000000000136e+02,3.758039942304278180e-02,2.786533017828166092e-01,9.800799032438666458e+00,-2.077157583693587384e-01,-3.643600857449067476e-01,1.437049080901955200e+01
2.673700000000000045e+02,-4.438979873004991750e-02,8.301045096943343582e-02,9.700431401668163645e+00,-9.790257502904750608e-02,-2.900263335551973021e-01,1.465005105731072810e+01
2.673799999999999955e+02,-6.464346427752130919e-02,1.515481982779544601e-01,9.834857818398363705e+00,8.155105672977312758e-02,2.135221147505673156e-01,1.462225312740292438e+01
2.673899999999999864e+02,6.411611228876519519e-02,2.176191810366012169e-01,9.935839332009683389e+00,2.314747043218828067e-03,-1.143325063508981165e-01,1.486362441102405363e+01
2.673999999999999773e+02,4.544084203537786942e-02,9.413940975917144127e-02,9.833085565766031877e+00,-1.790335605363391480e-01,1.382945693261308090e-02,1.534262754820399977e+01
2.674100000000000250e+02,1.467576819553817469e-01,2.632275986921797095e-01,9.802990523215479257e+00,-1.349089020266842909e-01,-5.321021276928107613e-02,1.485635116452820981e+01
2.674200000000000159e+02,4.542379779986036731e-04,1.455724244309685167e-01,9.715022816817272755e+00,-2.430590335074724606e-01,2.217420230491003452e-01,1.536814478287559638e+01
2.674300000000000068e+02,-9.944424213271602087e-02,3.892308829008267468e-02,9.924924315810908837e+00,1.520305412991259653e-01,-1.163544194182005720e-01,1.483986442661941574e+01
2.674399999999999977e+02,1.152557610185617979e-03,1.061779218969568644e-01,9.836134180262769533e+00,1.622650539235328260e-01,2.912209598517421782e-01,1.535261207475145717e+01
2.674499999999999886e+02,7.695050512946494115e-02,2.627989134340773525e-01,9.788920546590741623e+00,2.914617774183110299e-01,1.651767099095794444e-01,1.382169514690288104e+01
2.674599999999999795e+02,-2.121517329289824283e-01,6.243371768770693275e-02,9.763187825766399541e+00,-1.939988783992505073e-02,-7.682609627608011360e-02,1.532210096335604099e+01
2.674700000000000273e+02,-6.172974279982181879e-04,7.052778101877502093e-02,9.819237080166313802e+00,3.159281174951172194e-02,4.505648337555201791e-03,1.550803595219343833e+01
2.674800000000000182e+02,6.663828558775579392e-02,2.185759423986668171e-01,9.649714887231723992e+00,8.780157054823593821e-02,2.464288026641962281e-01,1.501324520498080695e+01
2.674900000000000091e+02,2.347693676926669581e-02,3.497730672423932097e-02,9.604538692903144437e+00,1.480555896556522699e-01,-7.812069326631942978e-02,1.541725357099099192e+01
2.675000000000000000e+02,-3.583387799153157915e-02,2.233431902338867958e-01,9.737806082859997048e+00,-3.536001810944761625e-01,2.495710021787517913e-02,1.476433228894210536e+01
2.675099999999999909e+02,-1.202689569202390063e-01,-3.928495275543106291e-02,9.886006632327154264e+00,-1.014530530799391816e-01,1.478259732585293640e-01,1.554192578818586412e+01
2.675199999999999818e+02,-1.191768513761785235e-03,2.141712141678994152e-01,9.728316337372742595e+00,-7.016087960311194471e-02,-1.000655666975795582e-01,1.473496419015921433e+01
2.675299999999999727e+02,-1.224300214244478796e-01,1.573416842252925163e-01,9.801806651139125748e+00,-3.104896097124824061e-01,1.989643442731324485e-01,1.505337897237622080e+01
2.675400000000000205e+02,6.730937241992832054e-02,3.300884175622169625e-01,9.836415076887005782e+00,2.225980608008495398e-01,1.513196973404138113e-01,1.398135165576775485e+01
2.675500000000000114e+02,6.125074715436401411e-03,-2.829809880259484545e-02,9.776187500624844873e+00,-3.229949441281762534e-01,1.679141434505612707e-01,1.395145577088696776e+01
2.675600000000000023e+02,1.494979013554115777e-01,1.020502984623058024e-01,9.573605891175725802e+00,-2.806727769688533436e-01,1.024609604258295281e-01,1.496537008495084997e+01
2.675699999999999932e+02,-1.953324730855187097e-01,2.184502840857212025e-01,9.859146598423061292e+00,-9.999373902014016546e-02,2.538407841937679321e-01,1.458523554114002962e+01
2.675799999999999841e+02,-3.399685048591043895e-02,1.618514511138255396e-01,1.005980248320167902e+01,-5.366330472392891876e-02,-3.219234197021424160e-02,1.445093581668811566e+01
2.675899999999999750e+02,7.333751863632832768e-02,1.167459427953557727e-01,9.684863633185507581e+00,2.770866728200751528e-01,1.588408693677514222e-02,1.512392500025426223e+01
2.676000000000000227e+02,1.142662282915742344e-01,-1.018048937106472152e-02,9.906058944168767866e+00,4.039400850323335845e-01,1.509216882690210537e-01,1.553933498715718109e+01
2.676100000000000136e+02,7.738725049127298528e-02,2.087243943527908041e-01,9.602053229085152353e+00,3.771982858693287421e-02,-1.313920702720833833e-01,1.472919953676873384e+01
2.676200000000000045e+02,-9.530777882995311590e-02,3.931173058208635718e-01,9.919779455388017197e+00,-1.382679526554916050e-01,-2.624382728256033359e-01,1.461524390584465394e+01
2.676299999999999955e+02,-4.812022455572023683e-02,9.293612847765583829e-02,9.595992509555816952e+00,-2.370482113957693704e-01,1.138796078432057213e-01,1.552028131808812894e+01
2.676399999999999864e+02,-2.235759963947269446e-01,1.742273977121978901e-01,9.823515140247989663e+00,1.254733402154106503e-01,-3.349266668291625559e-01,1.430823642323342781e+01
2.676499999999999773e+02,4.542678696177788675e-03,2.018247481943689636e-01,9.814174896132957571e+00,-2.392503238247203068e-01,-2.620544241040665551e-02,1.519359955970843501e+01
2.676600000000000250e+02,1.163281309075022557e-01,1.266958844715079247e-01,9.901375954247177091e+00,-5.601672398034238803e-02,-5.464948540225372103e-02,1.492265450612964806e+01
2.676700000000000159e+02,7.025871342969912392e-04,1.623853350218422698e-01,9.917384939299735080e+00,2.134163592976554558e-01,-1.415681336335222751e-01,1.474762680339345877e+01
2.676800000000000068e+02,5.766880217815591181e-02,6.307673266077482022e-02,9.781258290440916880e+00,1.139370492621768066e-01,3.684084072015079148e-01,1.494011596797296981e+01
2.676899999999999977e+02,5.500466343170656858e-02,2.801137131789349644e-02,9.745849786292170691e+00,-1.407056985609079769e-01,2.555945528042097847e-01,1.490640390476696631e+01
2.676999999999999886e+02,-3.168564131420691793e-02,3.169990587459122766e-01,9.756560890669209840e+00,1.441186685107670173e-01,-1.663319721799588480e-01,1.496516494392565022e+01
2.677099999999999795e+02,-2.431851939959918385e-01,1.543834156453311457e-01,9.780660046161088417e+00,-1.374784059955080628e-01,2.579140962927019623e-02,1.502078169741833769e+01
2.677200000000000273e+02,1.340899601968892074e-01,2.215475312542568298e-01,9.831567464172238147e+00,2.630722363580713652e-01,7.743461913442147015e-02,1.513779530783164518e+01
2.677300000000000182e+02,4.320002305278511368e-02,2.105170934433769347e-01,9.835602521853461511e+00,-1.452039939839191995e-01,3.077447767602749240e-02,1.478083322809127687e+01
2.677400000000000091e+02,-1.250732288401040226e-01,7.125459162403258162e-02,9.754244448518793575e+00,2.373202857271483612e-01,-2.758477213504745840e-01,1.511005936308811926e+01
2.677500000000000000e+02,3.708779034556710513e-02,3.616543050543877258e-02,9.860030790000589462e+00,-1.631802064528286578e-01,-1.952210777050285978e-02,1.528709872657129765e+01
2.677599999999999909e+02,2.000618330662551000e-02,1.049787193794337881e-01,9.876437638319250922e+00,1.715009545052608164e-01,-1.325740263822965115e-01,1.547643071284237948e+01
2.677699999999999818e+02,1.311088344152324670e-01,1.888966885540181440e-01,1.005213398782153433e+01,1.219205495424212221e-01,4.619939662571057037e-02,1.438287682220150820e+01
2.677799999999999727e+02,4.720790805763305786e-02,8.393597029263372145e-02,9.939392493332018574e+00,-1.390650112853420994e-01,-9.550619681250699378e-02,1.490279536630989199e+01
2.677900000000000205e+02,4.756605614182476266e-02,1.198922207697097897e-01,9.860691688574934943e+00,3.734709760144343527e-01,-2.677560930485338719e-01,1.424364610400918885e+01
2.678000000000000114e+02,1.993288556948129633e-02,-3.428060090836623774e-02,9.785895109487187327e+00,-2.743673494795192402e-01,-2.253618378199712391e-01,1.531086611059909153e+01
2.678100000000000023e+02,-7.697222308718856820e-02,1.627683111564651730e-01,9.630750444390704601e+00,-6.523551234526885068e-02,2.199445512174099115e-01,1.444447089788395466e+01
2.678199999999999932e+02,6.727451942868688251e-02,1.742266365858874677e-01,9.640821855511850558e+00,-1.994776858621885862e-01,1.161190246161105250e-01,1.569345909603565659e+01
2.678299999999999841e+02,-2.541828462074898626e-03,1.662769578573449758e-01,9.884446708709731411e+00,5.893319731610614787e-02,-1.037905473628240316e-01,1.554541735746149556e+01
2.678399999999999750e+02,-9.527863552334780994e-02,6.583155162767488633e-02,9.811855020694833840e+00,6.047831841141986658e-02,-9.734199172461149852e-02,1.594311970803455480e+01
2.678500000000000227e+02,-6.590390212767135991e-02,6.804269142937596770e-02,9.710498979472353298e+00,-2.063699856892022844e-01,1.316281373092548501e-01,1.580002624841304382e+01
2.678600000000000136e+02,-1.136157009246696881e-01,5.749984976484326382e-02,9.793183251674733469e+00,-1.146615512679209983e-02,4.360685582272325056e-02,1.500851437786691278e+01
2.678700000000000045e+02,1.059681933804517001e-01,1.242058411145707947e-01,9.755666861479809882e+00,2.946259083425805669e-01,-8.156967990580581140e-02,1.567246761459463578e+01
2.678799999999999955e+02,1.978786092416382758e-01,9.542639052880007300e-02,9.796658779529968442e+00,1.053363512613453984e-01,-5.028137290695514766e-02,1.452695712314709553e+01
2.678899999999999864e+02,1.155161698227009232e-01,3.077729165431100089e-01,9.713043802785959357e+00,3.256093349482294119e-01,-1.394267836352764689e-01,1.503990544512528515e+01
2.678999999999999773e+02,3.762302712479437261e-02,3.471716529088616499e-01,9.872734737601053467e+00,7.890463510989834117e-02,1.539963206722228320e-02,1.519484797155098654e+01
2.679100000000000250e+02,-6.545362027922090736e-03,2.404843958136402837e-01,9.777751738353263278e+00,-2.964478968936881120e-01,5.352223213507979471e-01,1.290361132415358725e+01
2.679200000000000159e+02,-2.909350613488143750e-02,1.431802957064956527e-01,9.903842765765398681e+00,-1.817656380591912146e-01,-1.701067793501479519e-01,1.235472554586232619e+01
2.679300000000000068e+02,-9.862959608695043290e-02,8.490013628446591021e-02,9.783146890217627956e+00,5.290218785210324022e-03,-6.171922392688160980e-02,1.066041523659365708e+01
2.679399999999999977e+02,1.946788825991345173e-01,1.585845506200650457e-02,9.821896529594356551e+00,-1.939982877381108417e-01,-3.344639510562337215e-01,8.980640264757463243e+00
2.679499999999999886e+02,-1.034023309324129669e-01,8.994310731812248105e-02,9.796182136421235143e+00,2.386229619858720383e-02,3.179150407517469107e-02,7.502395047400643335e+00
2.679599999999999795e+02,-8.494700142104952278e-02,5.036199783809097719e-02,9.749136072782567553e+00,2.109514931109230940e-01,-2.378902011905650038e-01,6.650795061546359577e+00
2.679700000000000273e+02,-1.955014759324935278e-02,-5.341993200661701580e-02,9.611991936749662457e+00,2.647784914308017323e-01,-2.733534409168401069e-01,4.430609227619826562e+00
2.679800000000000182e+02,-1.129197721746722297e-02,-4.580079873015352465e-02,9.931971091404943053e+00,-1.149200224628844219e-02,-3.413999710984090274e-01,3.486132527160836325e+00
2.679900000000000091e+02,6.020393299459315950e-02,-1.779171625240287824e-01,9.883654187161880600e+00,-1.490916284198478270e-01,1.576229547743205062e-01,2.214581209323945643e+00
