t,ax,ay,az,gx,gy,gz
1.695999999999999943e+02,3.915717038850868859e-02,-1.203219121172366124e-01,9.870091182910927685e+00,-4.386090691862321034e-02,-1.640386184803794001e-01,-1.404034336602454225e+01
1.696100000000000136e+02,2.461704303625715518e-02,-2.507780300162669729e-01,9.641529624363709416e+00,-1.135827968468536703e-01,-1.617285769439325283e-01,-1.439853069865758606e+01
1.696200000000000045e+02,-3.410022181445496181e-02,-9.167468748164130099e-02,9.904713180354931978e+00,-3.274761630387594824e-01,-5.933162802953565601e-02,-1.523434763061337271e+01
1.696299999999999955e+02,-1.906220681593102373e-01,-2.393762938173590871e-01,9.788166026567704847e+00,2.734837810323491047e-01,3.655749654399856330e-02,-1.508152504456178988e+01
1.696399999999999864e+02,3.541890932149547450e-02,-6.453387364666587911e-02,9.890883805199655043e+00,9.661610049569047814e-03,-4.682833341371181457e-02,-1.542102395084931921e+01
1.696500000000000057e+02,4.640646677051737251e-02,-8.170963270496618691e-02,9.855068793640079150e+00,-3.679517592108485363e-02,3.125066431661029931e-01,-1.481375716924000940e+01
1.696599999999999966e+02,1.087281345620904338e-01,-5.510761951006877546e-02,9.961092828441159952e+00,-5.884139807853090015e-03,6.051871307018124452e-02,-1.547957457876585785e+01
1.696699999999999875e+02,-3.350396163618237638e-02,-6.428327704327571612e-02,9.820150463618192660e+00,1.890176237711076457e-01,6.763001266543558487e-02,-1.526100041654881956e+01
1.696800000000000068e+02,-6.670652825297668231e-02,2.659808055999721144e-02,9.951907507637372419e+00,-1.239787740565339025e-01,6.195352909232651473e-02,-1.439604947538599333e+01
1.696899999999999977e+02,-9.145649199926179918e-02,-1.159213370730359377e-01,9.877238643390347406e+00,-3.795510464028545305e-02,-6.396129838995145978e-02,-1.488309206727847034e+01
1.696999999999999886e+02,-2.998207158490413526e-01,-3.113355510867289455e-01,9.695394844443486093e+00,-4.021451926288940881e-01,7.902258240463627681e-02,-1.486727560781966595e+01
1.697100000000000080e+02,-4.047170511823199729e-02,-1.537806880435085843e-01,9.916053946498514904e+00,-1.691245327831375836e-02,1.747264679031726720e-01,-1.513536379627277562e+01
1.697199999999999989e+02,2.766497489123994069e-01,-2.124334061494916881e-01,9.832870657551852744e+00,-3.541207712994960399e-01,-2.217267932268203179e-01,-1.525176204100214683e+01
1.697299999999999898e+02,1.270941193577327655e-01,-3.031455300778390649e-01,9.782042517745390242e+00,1.272764608616470394e-01,-3.536332809796975951e-01,-1.542482284409564919e+01
1.697400000000000091e+02,-9.921847276391071446e-02,-3.878911468111123639e-02,9.827939278337877838e+00,-1.348384740726087661e-01,2.261050138895694117e-01,-1.577299038488965799e+01
1.697500000000000000e+02,-5.146853834247690218e-02,-1.972887588423236360e-01,9.737902783344400959e+00,-3.684660265245896099e-02,4.837967921073025451e-02,-1.476033779007904911e+01
1.697599999999999909e+02,-5.210292768318966483e-02,-3.157345057262567756e-01,1.008675152903364314e+01,-2.239696070432410646e-01,7.251639273798712870e-02,-1.380875380170882138e+01
1.697700000000000102e+02,1.398532244678068748e-01,-2.311433313988449922e-01,9.792874614627880447e+00,-3.630289158287641066e-02,-2.496093867408084310e-01,-1.523888289895176307e+01
1.697800000000000011e+02,2.224534338771210484e-01,5.983842432441163761e-02,9.720269028950177415e+00,2.918068119971248819e-01,-8.306866087808328913e-02,-1.533677332162622875e+01
1.697899999999999920e+02,8.979608698994405794e-03,-2.992892333199601018e-02,9.606092017941662675e+00,-7.360298380757530901e-02,-1.018732212992968719e-02,-1.472761977337483508e+01
1.698000000000000114e+02,2.636693446827011525e-02,-9.371768336345523420e-02,9.902341298664373070e+00,-1.510854759690142268e-01,-2.652089077330613831e-01,-1.517306696823861145e+01
1.698100000000000023e+02,5.203926245593335637e-02,-1.035894359917385599e-01,9.842342719234894233e+00,-1.476094858144389732e-01,2.598021207241390032e-02,-1.459727620274864535e+01
1.698199999999999932e+02,-1.585513388758311333e-03,-2.570071491679948306e-01,9.815884112711021459e+00,6.372182395789927067e-02,1.109024217411966051e-01,-1.447580963841285318e+01
1.698300000000000125e+02,2.819842426944232927e-02,-2.645387704153136510e-01,9.871572560071037117e+00,3.627179297532998614e-01,2.459394202201262147e-02,-1.484693743549547129e+01
1.698400000000000034e+02,4.817330375311533464e-03,-1.108644996913575043e-01,9.881039061840935389e+00,-1.165893476254989958e-01,1.144204738209176064e-01,-1.511226319609027691e+01
1.698499999999999943e+02,4.779699775992352073e-02,-7.820745105138360298e-03,9.894792780746129779e+00,-2.060384564852433403e-02,3.198481638627536650e-01,-1.583433028261684150e+01
1.698600000000000136e+02,-2.001736131354037163e-01,-2.683109340940028620e-01,9.785594903417678125e+00,-4.883138193307341446e-01,2.926389753590101228e-01,-1.568954499368083155e+01
1.698700000000000045e+02,-4.794804554303608995e-02,-1.763221661311724087e-01,9.648113967874667907e+00,-1.586631810948643528e-01,-2.004332799189127989e-01,-1.434116542667128691e+01
1.698799999999999955e+02,-1.183394174429569512e-01,-1.432415991353676865e-01,9.732114562409305947e+00,-7.181889233263268404e-03,-2.750716196300223015e-01,-1.488118624273698032e+01
1.698899999999999864e+02,6.900947976026830522e-02,-2.148128523993696470e-01,9.848514460156865269e+00,9.968684279958256456e-02,-1.663714468752006681e-01,-1.502672985738775324e+01
1.699000000000000057e+02,-7.856072811244635412e-02,-1.842542960125237161e-01,9.786258688810205442e+00,-2.855672455654433284e-01,5.638000931432220197e-03,-1.490702601120172410e+01
1.699099999999999966e+02,-1.564894919035778043e-01,-2.695229279655766974e-01,9.903538247460264898e+00,3.046178078947590073e-01,-1.479873023264255127e-01,-1.472424612368534191e+01
1.699199999999999875e+02,-1.788388927204346279e-01,-1.357916258677652199e-01,9.917587146107091911e+00,-1.375588552619551042e-01,3.161784731987080099e-01,-1.536855158200244809e+01
1.699300000000000068e+02,4.493766390248095377e-02,-1.494397754532706402e-01,9.796468324507708658e+00,2.052936195835896316e-01,-1.183701983754753551e-01,-1.466841364664628422e+01
1.699399999999999977e+02,-9.287565596886601660e-02,-1.050395621827902581e-01,9.734009066956950562e+00,-4.471607505356813839e-01,-1.045126679011364745e-01,-1.404285280732582564e+01
1.699499999999999886e+02,-1.381804933322729016e-02,-1.870809124730193895e-01,9.763513864765812400e+00,-2.765123280504661607e-01,1.987233348279759393e-01,-1.520259087617285410e+01
1.699600000000000080e+02,1.582880045323622475e-01,-9.538747457875758340e-02,9.813823686436485616e+00,3.967943197378697717e-01,-3.452305035083305749e-03,-1.497464874953956659e+01
1.699699999999999989e+02,3.751823124510850205e-02,-1.327941722434866911e-01,9.838060436396173003e+00,-2.047780337939461293e-01,-1.391724668313172597e-01,-1.460319690579357399e+01
1.699799999999999898e+02,-5.101250493637778105e-02,-4.313370559629603473e-02,9.949119643428868898e+00,-9.849740593260493393e-02,-1.167498824276290287e-01,-1.530897138130797153e+01
1.699900000000000091e+02,-1.175161996127883912e-01,-1.931623681106221235e-01,9.840521114468051778e+00,2.610923068164137106e-01,-3.259440302954548230e-01,-1.491267742272410501e+01
1.700000000000000000e+02,4.349714726735640080e-02,-7.238761756188163976e-02,9.825905004863924930e+00,-1.191658816538965771e-01,-9.499477939725292641e-02,-1.496823838761923575e+01
1.700099999999999909e+02,-1.291027084737234390e-02,-1.890857781888616029e-01,9.640637697621851743e+00,3.513127348880782513e-02,-2.848210517613455894e-01,-1.482867613810608987e+01
1.700200000000000102e+02,5.785853082125527735e-02,-1.025115138169734735e-01,9.894163391513302486e+00,-1.263397594600427498e-01,-2.574437915326295845e-01,-1.471666114190184516e+01
1.700300000000000011e+02,-2.383621260050743373e-01,-3.380563952463846999e-02,9.797709000303706617e+00,-1.066797531683471717e-01,1.155331571259327755e-01,-1.530069489295032348e+01
1.700399999999999920e+02,1.137453907923797192e-01,-4.917728712864610774e-02,9.636165785134743089e+00,-3.468844365668080076e-01,1.475580925092738471e-01,-1.461930830989083852e+01
1.700500000000000114e+02,-1.712807613096691550e-01,-1.870535353993205696e-01,9.597765169790761774e+00,-3.197948212311071264e-02,5.081425687087204324e-01,-1.560890277669568960e+01
1.700600000000000023e+02,-4.841605052685923893e-02,-2.192310599773145408e-01,9.768698372092018190e+00,2.089657288844820604e-01,2.760977862133726091e-01,-1.456823926801235025e+01
1.700699999999999932e+02,1.389985043272404519e-01,-6.955314799207122645e-02,9.880477421431358209e+00,1.400482678695220140e-01,2.100316352046074087e-01,-1.553694149904584521e+01
1.700800000000000125e+02,-2.233605245995566868e-01,-2.120167480506740254e-01,9.683842227803449276e+00,1.867779951958622453e-01,-9.404688331074578800e-02,-1.499152282070223663e+01
1.700900000000000034e+02,-8.680380206755889880e-03,-6.768070229868233811e-02,9.806192952882193836e+00,-4.681533586649863632e-02,3.013535072313983099e-02,-1.508304626324668796e+01
1.700999999999999943e+02,-2.747629760909964247e-02,-2.861711200061917149e-01,9.650180219657817915e+00,1.983726258235853912e-01,2.895184348752493086e-01,-1.530319439098260048e+01
1.701100000000000136e+02,-2.876037551022778312e-03,-1.192916552245339157e-01,9.747846092083481295e+00,4.495807499246300132e-02,-2.882011462029113874e-02,-1.471299802375555466e+01
1.701200000000000045e+02,3.562005887321266495e-02,-2.034899186486991696e-01,9.724274398660341490e+00,-4.158770420068675921e-01,1.915288802678116464e-01,-1.543043084131911158e+01
1.701299999999999955e+02,1.507703878282373039e-03,-3.332610034554138734e-01,9.728657895333107319e+00,-9.163616997164845956e-02,1.290242344202809366e-01,-1.525824363326884558e+01
1.701399999999999864e+02,-1.340003995024579841e-01,-2.440757257247535283e-01,9.888245105041045591e+00,-4.568584894656267936e-01,2.702912335061814497e-01,-1.540255746124098835e+01
1.701500000000000057e+02,9.730575190293085097e-03,-2.053660150132179396e-01,9.784572710191032030e+00,1.401719030312695846e-01,1.983829387242432851e-01,-1.496248678983392999e+01
1.701599999999999966e+02,-1.830662470678941613e-03,2.580038988737168304e-02,9.871974540755747540e+00,-1.377110403619908607e-01,-2.017693193795697393e-01,-1.481572655641681635e+01
1.701699999999999875e+02,-6.021387961472527035e-03,-4.662304303012445583e-01,9.843223297390288451e+00,-6.341261414084485570e-02,1.946836357760550751e-01,-1.527861901710511461e+01
1.701800000000000068e+02,2.086005185522138705e-01,-1.999614099735791961e-01,9.852060342853942387e+00,4.400477067164808576e-01,-8.758433827697395535e-02,-1.503648722018338013e+01
1.701899999999999977e+02,1.337426253800426401e-01,-2.015569417010255326e-01,9.773429673758281311e+00,-8.876189409160294141e-02,1.987191925312335739e-02,-1.460544859949959751e+01
1.701999999999999886e+02,1.827156757579307400e-01,-2.636737402720429335e-01,9.843166797583508654e+00,7.417351338814359707e-02,-1.034419267273293808e-01,-1.476329062326688835e+01
1.702100000000000080e+02,3.440944316643293477e-02,-2.054776575873574207e-01,9.805164086890831854e+00,5.952563405040304373e-02,3.112252610795294694e-01,-1.421673260445032305e+01
1.702199999999999989e+02,1.785339136696812434e-01,-1.814582378312133981e-01,9.775500143992053026e+00,-7.808407510597679957e-02,2.110309466140786877e-03,-1.439906867245369781e+01
1.702299999999999898e+02,-8.560010352744445994e-02,-2.336613668472363736e-01,1.006583189078892104e+01,-2.264882215276583788e-01,1.294251158719524342e-01,-1.524668072439264677e+01
1.702400000000000091e+02,-3.592365503477032429e-02,-1.309304897705896031e-01,9.791028013620815429e+00,3.165318782307251499e-01,-1.427875951205233307e-01,-1.557995073643245121e+01
1.702500000000000000e+02,-5.801452652155596884e-02,-8.492387676460100288e-03,9.877975549807098687e+00,2.594273919359725844e-01,-4.358081530410320287e-02,-1.433400242464820984e+01
1.702599999999999909e+02,-4.958981562959749456e-02,-1.716233715800973836e-01,9.792284604463045383e+00,1.073676343744138680e-02,-2.944121442774502162e-01,-1.402454279475718124e+01
1.702700000000000102e+02,4.130141786486448384e-03,-2.353250323064508542e-01,9.975485574134633993e+00,2.186482144875006028e-01,-2.056898898996482872e-02,-1.470668148202017278e+01
1.702800000000000011e+02,2.039656009112449792e-02,-1.776581356969152703e-01,9.718715752456814627e+00,-4.205424475636115322e-01,6.210260431883917603e-02,-1.493208847519873572e+01
1.702899999999999920e+02,4.309912192783879603e-02,-2.014600641090114053e-01,9.905067741542303850e+00,1.343267115095005404e-01,-2.599024088213579622e-02,-1.547068200863451004e+01
1.703000000000000114e+02,1.744655061908689242e-01,-5.699016590767880253e-02,9.637209093921606851e+00,3.613961172692595897e-02,-1.878942426506818864e-01,-1.529954052962805022e+01
1.703100000000000023e+02,-1.524631319721042044e-01,-2.130908857558278247e-01,9.705751105615787466e+00,3.537240798192331503e-01,-2.127235863481140299e-01,-1.413752890465037737e+01
1.703199999999999932e+02,-1.205247164498958468e-01,-1.179240905372757608e-01,9.886813639546634391e+00,-1.646914606734584952e-01,3.471594933691635188e-01,-1.472977669606880369e+01
1.703300000000000125e+02,-2.441915562924823202e-01,-1.377749233774363813e-01,9.866255917579525914e+00,-1.271910142120722120e-01,-2.592176309276465057e-02,-1.550351011230584675e+01
1.703400000000000034e+02,-8.419765290621017417e-02,-1.559954711154903362e-01,9.712724121766395768e+00,-1.092172579589092973e-01,-2.065450857974339971e-01,-1.582220185440346150e+01
1.703499999999999943e+02,-4.441674213637140933e-02,-2.802807893954745166e-01,9.769315378067313205e+00,2.062715639265420495e-02,-1.158636849852584388e-01,-1.511283967397324446e+01
1.703600000000000136e+02,-6.984224386906183468e-02,-2.280968641275986364e-01,9.913973823309653710e+00,-2.447981115959604187e-02,-8.394068674043696221e-02,-1.437524171998849276e+01
1.703700000000000045e+02,-1.138948206699967741e-01,-1.856964453013878469e-01,9.951290292252885195e+00,7.055174333260903763e-02,2.907092048489464189e-02,-1.446121960202238199e+01
1.703799999999999955e+02,8.907376971406141125e-03,-2.857297566004971534e-01,9.849099830111283538e+00,-2.094881793638013745e-01,2.446170871944369218e-01,-1.471431783004539007e+01
1.703899999999999864e+02,-3.866863219839913879e-02,-2.646397666309738828e-01,9.787601504287742671e+00,-1.487928532081896904e-01,1.144370527289522432e-01,-1.588463446247863153e+01
