t,ax,ay,az,gx,gy,gz
2.311999999999999886e+02,2.007979139785592143e-02,-6.304358920641939257e-02,9.699193726801695448e+00,-1.774884145538394714e-02,-5.965063325304949260e-02,-5.928075862635873161e-01
2.312100000000000080e+02,-9.481139684501938003e-02,-1.051995456709200749e-01,9.960015913281866418e+00,-4.408689091147624528e-02,-2.406512802204818779e-01,3.287299322715714900e-01
2.312199999999999989e+02,-9.923101616359873700e-02,2.346429920049251591e-02,9.707896754061341227e+00,4.724257177802224650e-01,1.379622754920789562e-01,6.997397800771197607e-02
2.312299999999999898e+02,-1.541251424037345108e-01,-1.931123117641350695e-02,9.847911918576942369e+00,4.255180412602835305e-02,-1.944892956316245369e-01,-4.142033959819731992e-01
2.312400000000000091e+02,-2.020594532539858601e-01,4.268213478383129506e-02,9.689526179279905449e+00,-2.906050471860339990e-02,-2.793273127648787657e-01,-9.507322375436254303e-02
2.312500000000000000e+02,-1.564051993380574379e-01,-1.124735859521162062e-01,9.842286210444639138e+00,1.580545177626864126e-02,-1.385575899313965242e-01,-2.339067581913653326e-01
2.312599999999999909e+02,1.161521957519204423e-01,-1.524384057949505211e-01,9.792017746194286332e+00,1.941408467799629056e-01,1.806508078779387461e-01,4.659649790710900241e-01
2.312700000000000102e+02,7.102785391760771394e-02,6.681930988506291913e-02,9.786731688259516559e+00,-2.714299592331115979e-02,-1.606299311513773587e-01,3.451468429600172971e-01
2.312800000000000011e+02,5.532781601254369019e-02,8.257658566857069282e-02,9.895727720114820158e+00,3.779848291614088494e-04,-2.074213235231022745e-01,3.218089193579481422e-01
2.312899999999999920e+02,-2.227150803563775552e-02,-8.412203833097453565e-02,9.881089781630528535e+00,-2.085178819729665012e-01,3.445287588293784453e-01,7.703519066648238656e-02
2.313000000000000114e+02,-4.150659407009332606e-03,-3.568874704926960212e-02,9.876439482372273204e+00,-4.517234767613313995e-01,3.478565486971991749e-01,8.599656920760204715e-01
2.313100000000000023e+02,-2.686974230328261978e-02,2.740151288336180324e-02,9.598715939280351606e+00,-2.621342932196184528e-01,9.740921602092347809e-02,2.940802662164604953e-01
2.313199999999999932e+02,-1.586935264145139246e-01,5.799134450771444016e-02,9.805304755180365817e+00,2.001562509518632071e-01,-5.224381539282374476e-02,-7.217320537169931161e-01
2.313300000000000125e+02,6.476867185108031721e-02,-1.756658891440626702e-01,9.945909619275708380e+00,-6.708173583517640370e-02,-2.341207751601314946e-01,-7.006423798047284324e-02
2.313400000000000034e+02,8.526789563321066079e-02,9.845604411711564308e-02,9.758647041325392735e+00,-1.158405850625174316e-01,4.075048374179922328e-02,-4.813421822069770539e-01
2.313499999999999943e+02,-1.150330433471681568e-01,-1.328650208764383389e-01,9.968886311185642057e+00,1.083634096207044817e-01,-8.577816060276283183e-02,3.917672995387154744e-01
2.313600000000000136e+02,-1.151247587597577920e-01,-1.403161445412909047e-01,9.906049465447839708e+00,1.353584981665089948e-01,-7.141203597773529421e-02,-8.341253525416875148e-01
2.313700000000000045e+02,3.517672016918521605e-02,-4.136462687238355584e-02,9.767424639355370530e+00,2.140246070592917160e-01,2.428437126608792296e-01,-1.087952416526201671e-01
2.313799999999999955e+02,3.429487641088894978e-02,-4.331547163073554141e-02,9.779960490941309814e+00,8.738608617197798217e-03,-2.307057200848573741e-01,3.894843041905458048e-01
2.313899999999999864e+02,7.326759053714847203e-02,2.814721287737269404e-03,9.603944294053960107e+00,1.300732673671644024e-01,-2.022795742744348813e-02,1.062785834891778747e-01
2.314000000000000057e+02,1.413573034424924768e-01,1.568012331672958420e-02,9.812490786123186481e+00,-1.464099247229984635e-01,9.183659883553409176e-02,2.362460672533063799e-01
2.314099999999999966e+02,-1.057910613619454931e-01,1.695976025752381489e-01,9.711366630767823693e+00,2.212522940533232230e-01,2.693795643761189365e-02,-1.359736575703280881e-01
2.314199999999999875e+02,-8.199462063832303402e-03,-9.121808343469997582e-02,9.653130349696805723e+00,1.540953508379964698e-01,-2.112548466372012601e-01,-6.211771907157147554e-01
2.314300000000000068e+02,-1.000519400348357096e-01,1.064521211011357354e-01,9.961652737618045705e+00,9.458951444266620878e-02,-2.721831859254578156e-02,-4.097505439923863624e-01
2.314399999999999977e+02,-9.284912606825340697e-02,-1.477534362976074267e-01,9.730292951696679182e+00,1.100852247849815058e-01,-3.052752948594684157e-01,-3.617083620446698289e-01
2.314499999999999886e+02,-4.297964379986035643e-02,-1.237034682218106640e-01,1.000931961379511748e+01,3.570084809145335214e-01,2.809642053602482425e-01,-4.211496700729621123e-01
2.314600000000000080e+02,1.440355945157368589e-01,-9.403035223246886121e-02,9.630135242306570476e+00,3.394079489580723585e-01,1.378656698328558361e-01,1.821434017902873181e-01
2.314699999999999989e+02,1.104818232959953184e-01,-1.930201693914548322e-01,9.638602759176272627e+00,1.696651486077569715e-01,-7.629784373504559791e-02,1.346231702503409011e-01
2.314799999999999898e+02,-7.482344641216338854e-03,4.476487896332845967e-02,9.852947513067176644e+00,3.863869160158919236e-01,-2.642241282753289289e-01,9.557375298336437397e-02
2.314900000000000091e+02,-2.156101758148346037e-01,1.219534144794135050e-01,9.877825025546730586e+00,-8.907560109194842535e-02,8.940818975551921566e-02,2.700397782918833034e-01
2.315000000000000000e+02,3.927781927320320166e-02,9.068538535362255515e-02,1.002220516132282491e+01,-2.283916891675338567e-01,2.198924084086809616e-01,-1.006381621673722859e-01
2.315099999999999909e+02,3.696721546587419110e-02,-1.542024382022697537e-01,9.743706977172072570e+00,6.291823810517556403e-02,-4.004105579769777212e-01,4.624741283485053756e-01
2.315200000000000102e+02,-9.335936059468981363e-02,2.279865083518669844e-01,9.792417492200923945e+00,-4.888998804119250308e-02,3.087720522652883659e-01,-6.913751008428895561e-01
2.315300000000000011e+02,8.306963945081420608e-02,1.116145994551326348e-02,9.939282756977853239e+00,-6.748132949902897748e-02,-1.208687444801093414e-01,9.320577154107012596e-01
2.315399999999999920e+02,-9.528239661171312991e-02,1.544899771457667048e-01,9.777169848493441506e+00,-1.465223682033127695e-01,7.152189242537064853e-03,-1.459053149268685068e-01
2.315500000000000114e+02,8.277389887818016601e-02,-1.394345083954728719e-02,9.845009113846657556e+00,1.666342721849795594e-01,-1.432292133800999951e-03,5.381607263560977961e-01
2.315600000000000023e+02,2.410654012350828268e-02,-1.287129821865726220e-02,9.635998068337945810e+00,-8.648768036553075578e-02,2.892334945500136395e-02,-7.851764413718532731e-01
2.315699999999999932e+02,-1.459814920734062438e-01,-3.758706762389182887e-02,9.925572530213070621e+00,1.458981033264100946e-01,2.929223970580860023e-02,-6.295983240529970937e-01
2.315800000000000125e+02,-3.614765315387109823e-02,2.065657513296051961e-01,1.011520014777457277e+01,1.941815231752704873e-01,3.042715477737834712e-02,1.569778462162446375e-01
2.315900000000000034e+02,1.446513915404498522e-02,1.387827629466048263e-01,9.731839410087196995e+00,6.289507700559369974e-02,-1.787126567779734609e-01,-1.825840810367312661e-01
2.315999999999999943e+02,3.001579764470475864e-02,-5.832533666275586774e-03,1.009553629685965603e+01,5.207152077606774787e-02,-2.246632802807131957e-01,-8.685818999021943654e-01
2.316100000000000136e+02,1.033177141368979979e-01,-3.211891879136171551e-02,9.927188739431736408e+00,5.400753912241434973e-02,1.507989378765136612e-01,-5.098592141348242679e-01
2.316200000000000045e+02,1.157773930181186794e-01,7.450082422441890728e-02,9.911419726584524525e+00,1.093465610553736589e-01,2.113736099984116490e-01,8.458158541202300817e-01
2.316299999999999955e+02,-2.386247972182506394e-02,-1.863540640250038738e-01,9.833451434879526332e+00,1.876342321459261997e-01,-2.116897014507072294e-01,-4.265094266380093924e-01
2.316399999999999864e+02,5.593218748236782750e-02,-2.173650702428621961e-01,9.824208838060732418e+00,-9.694569620299188506e-02,1.307214803700618710e-01,-2.391493232416739001e-01
2.316500000000000057e+02,1.607935933597025024e-01,-1.035920880541099098e-01,9.863290817421075829e+00,7.632967553314640163e-02,-1.873713698766251712e-01,1.206629367911226547e+00
2.316599999999999966e+02,-1.018664296608908781e-01,3.756779540837022063e-02,9.838311178399411716e+00,-1.435364534045595886e-01,1.957457782161662885e-01,-4.805455965151246289e-01
2.316699999999999875e+02,-6.079602062009536317e-02,1.061406069462437762e-01,9.576195015543536471e+00,-2.330856621080178714e-01,-1.934953888714134596e-02,2.027821308949707968e-01
2.316800000000000068e+02,-1.655134965378669554e-01,-1.244259057792767992e-01,9.836868128877339856e+00,-3.244436720978457478e-01,3.222398509206526596e-01,-4.314584790735048192e-01
2.316899999999999977e+02,-6.314322303874383979e-02,1.538305756531797019e-01,9.996933790067473069e+00,-3.738291492059755416e-01,-5.352813089425514925e-02,6.618009969922806768e-01
2.316999999999999886e+02,2.057814377724245802e-02,-5.362032287391578500e-02,9.875541438430259333e+00,-1.421074737619841266e-01,4.653877128452836853e-01,5.263993882082429465e-01
2.317100000000000080e+02,-2.116146239986127220e-01,4.266729321960238686e-02,9.663297125177182423e+00,-4.944704531063814912e-01,-1.412159421439244389e-01,1.014461153128577653e+00
2.317199999999999989e+02,4.370449951288116891e-02,-5.396435349149839716e-02,9.772424581105426000e+00,1.269984856465400103e-01,-2.311905205308717182e-01,-3.089220165659829764e-02
2.317299999999999898e+02,-4.723443664530787428e-02,-1.167880415575971165e-02,9.940320158101661363e+00,-1.668013729112305110e-01,5.202863607922564998e-03,4.988574482907301988e-01
2.317400000000000091e+02,-6.267376250895734593e-03,1.806321888062597525e-01,9.856916180649253789e+00,7.179113813020308876e-02,-1.615668363284086528e-01,8.151606803750743868e-02
2.317500000000000000e+02,-1.168871980541168337e-01,-5.360980208666659558e-02,9.938479873536731901e+00,1.233191764865799317e-01,-2.232314501826473119e-01,-1.110214963763620721e+00
2.317599999999999909e+02,-1.022607870694230460e-02,-9.413328208227823846e-02,9.863900250185702490e+00,8.285440613709842139e-02,-2.099477765823804243e-01,-4.804011710350541975e-01
2.317700000000000102e+02,1.679199664937084113e-01,6.666920924137054172e-02,9.932642721608628378e+00,-1.697198478014287637e-01,1.525274783064966000e-01,-1.041321331436185327e+00
2.317800000000000011e+02,-3.998041652196632906e-02,9.740859056631051560e-02,9.875509921384683309e+00,-1.268399138923017450e-02,2.604799458514034938e-01,-3.764180160135172648e-01
2.317899999999999920e+02,-2.212936979464355525e-01,-1.507826353736487768e-01,9.838135258150046525e+00,3.216093127353114589e-01,3.780003869883995227e-02,5.829708968852062023e-01
2.318000000000000114e+02,1.213772278630825818e-01,3.674770806140884721e-02,9.883847948826550933e+00,-2.921521694050225118e-03,1.503278415161156678e-01,5.119817801654337197e-01
2.318100000000000023e+02,5.424478467212955762e-02,5.366947525346580511e-02,9.565185550805619386e+00,-9.294659269754347586e-02,1.781855999323372908e-01,-1.225107272411654451e-02
2.318199999999999932e+02,9.404279099435895045e-03,1.745147985432435322e-01,9.738386414771138533e+00,-9.820470768740997836e-02,-2.123086774139882338e-01,-2.188842013187899671e-01
2.318300000000000125e+02,5.680521563119797501e-02,-4.023573831833199277e-02,9.897860367067078613e+00,3.671939613261369223e-02,-2.863905965184664892e-01,6.181524169397146773e-01
2.318400000000000034e+02,8.251617275026122689e-03,1.346863883270888185e-01,9.643044815025250571e+00,1.739648814967851287e-01,7.077936172088521161e-02,8.561983882491345232e-01
2.318499999999999943e+02,1.643266239909656479e-01,1.613397657473359878e-02,9.922871744230237212e+00,-7.893038486520230490e-02,-7.256238206373755162e-02,4.712913658000955630e-02
2.318600000000000136e+02,7.519995285823455333e-02,-2.993956891122991071e-02,9.822533109880515312e+00,-1.452091145021940435e-02,7.171874044625567435e-02,1.002175133342536606e+00
2.318700000000000045e+02,-4.564247325115008969e-02,-7.425202937454140895e-02,9.710898434280281322e+00,3.625093786682674901e-01,1.495551999574444568e-01,-3.891507667458470321e-01
2.318799999999999955e+02,1.491954941655716238e-01,4.965019938670379301e-02,9.821549762472383094e+00,-1.186150919597230707e-02,-1.527081132112043382e-01,4.327937522985503271e-01
2.318899999999999864e+02,1.819984864479097242e-01,-1.167987824343094116e-01,9.707126224739479170e+00,-2.491937809411616245e-01,1.129155306379768658e-01,9.189124771999103158e-01
2.319000000000000057e+02,9.103639516779449270e-02,-1.092444774840380939e-01,9.887510545120727912e+00,4.455817891951861787e-02,1.121380181877938698e-02,-7.931905080094721061e-01
2.319099999999999966e+02,4.069295889288455925e-02,7.716554078899942604e-02,9.947266033511885652e+00,-1.574810734104802323e-01,-3.541253472393391527e-02,1.545444652333973101e+00
2.319199999999999875e+02,-8.540968831727593913e-02,2.180698836034012933e-01,9.804259126983813744e+00,1.164757058641554405e-01,-2.519348546931851063e-01,3.667871337740089555e+00
2.319300000000000068e+02,6.856590107015685109e-02,-9.187048922760870928e-02,9.976776744151800713e+00,2.538937119171266743e-01,-7.434588265968092302e-02,4.296738392214694002e+00
2.319399999999999977e+02,3.880261980090746188e-02,-6.573456461405446927e-03,9.892516487777413658e+00,-5.464451729430400695e-01,-3.383394906664258794e-01,6.366314379463662299e+00
2.319499999999999886e+02,-2.680278707987353553e-03,1.126315935767006615e-01,9.877406295297380012e+00,-1.068251803011068812e-01,-1.684926924524560166e-01,6.678028997716319637e+00
2.319600000000000080e+02,6.992681361293903719e-02,4.474272695569102287e-02,9.871206646553934760e+00,-1.235301834429413104e-01,-2.922702314768843221e-02,8.974709487502758876e+00
2.319699999999999989e+02,8.705755421392452967e-03,-7.135426901524698218e-02,9.767214688444134651e+00,-6.991560036423871694e-02,-2.670622946147658272e-01,9.896404802273186974e+00
2.319799999999999898e+02,5.487830415874635215e-02,4.784395647059576373e-02,9.820458875284931111e+00,2.457224495869158032e-01,2.011317842736897732e-01,1.131455881507885586e+01
2.319900000000000091e+02,1.035828783971801947e-01,1.989628555699100576e-01,9.829729657872384507e+00,4.436040340770858181e-02,1.090715559048943128e-01,1.305169550627471686e+01
