t,ax,ay,az,gx,gy,gz
3.119999999999999929e+01,-8.063626971363013762e-02,2.339605698244413834e-02,9.791527259580160347e+00,1.425178024646689134e-01,2.238611077349089984e-01,-8.979102179347223656e-01
3.121000000000000085e+01,-1.345583400104966021e-01,6.603132145154289034e-02,9.857153318674217957e+00,-2.421117887725242612e-01,-2.133847054982954961e-01,-4.411795110646943990e-02
3.121999999999999886e+01,1.698092906333733276e-01,1.135831450569966955e-01,9.729707202351717044e+00,-2.452401650392031091e-02,8.141451594858724328e-02,-5.057546163696051700e-01
3.123000000000000043e+01,-8.650714271711279491e-02,-7.530183265974213502e-02,9.750613000959774013e+00,-2.625182431859491294e-01,7.560799879691174064e-03,-1.060583032806421189e+00
3.123999999999999844e+01,1.567796131196472487e-01,-3.896291002982346652e-02,9.917696864298397585e+00,5.566239769927524561e-01,1.735875496028578824e-01,-4.816802648958949384e-01
3.125000000000000000e+01,-8.595000398001768904e-02,-3.842490890568287139e-03,9.875558213675383001e+00,8.304529560631840335e-02,-1.468757832963100279e-02,-7.988532664287119334e-02
3.126000000000000156e+01,5.251903903377283522e-02,-1.240006028685933653e-01,9.658121674057916550e+00,1.655415304218033068e-01,-6.088675531442824251e-01,5.402142043974221819e-01
3.126999999999999957e+01,-1.137807159653634881e-01,7.293817350480336081e-02,9.634778718682202481e+00,-1.597544130970393259e-02,-1.302169171878171938e-01,1.090650943455720556e+00
3.128000000000000114e+01,5.233950169020153143e-02,-2.754495133453394723e-02,9.706353308530520252e+00,-5.774633826095181277e-01,-3.357766401881646240e-02,2.555666322103902210e-01
3.128999999999999915e+01,-3.255873571531219673e-02,-3.856767821021651887e-02,9.751156120964113327e+00,-1.937989699403414035e-01,-1.074078028966430065e-01,-3.711776377788526537e-01
3.130000000000000071e+01,-3.125161606756703819e-02,-6.429646219457434142e-02,9.903817231689876266e+00,-2.443340644100105430e-01,-1.312838111874051750e-01,-6.840592023535085886e-01
3.130999999999999872e+01,6.100231697844504808e-02,-3.405499936346742095e-03,9.685324996843144518e+00,4.264623343189814092e-02,-2.242024804769391089e-01,4.996953355749791329e-04
3.132000000000000028e+01,-4.691413650790981354e-02,1.557640746990111152e-02,9.883744753399232863e+00,-1.093577824715054742e-01,1.284897097608528604e-01,-1.458780660271353224e-01
3.132999999999999829e+01,-1.428148495445097643e-01,9.960506106931274473e-02,9.772475329024718604e+00,2.429119263580854227e-01,-1.618209679867528283e-01,-3.721255947379539242e-01
3.133999999999999986e+01,7.613055634094526014e-02,1.024146469587988162e-01,9.795882453761487696e+00,-1.302486297774616275e-01,5.291124981860517718e-02,-3.715697243373708991e-01
3.135000000000000142e+01,-1.145900589982328244e-01,-1.133672380651261496e-01,9.766139872431278235e+00,4.437574313839928730e-02,-2.534681423704721048e-01,8.430485618929725034e-01
3.135999999999999943e+01,5.165172843979100314e-02,4.605502678476396106e-02,9.843322046905603528e+00,-1.470865441092254478e-01,-2.938831375317413341e-01,-8.929779769535384215e-02
3.137000000000000099e+01,9.729965453330005620e-02,1.229902635218236145e-01,9.909025019889240227e+00,2.338547676847323731e-01,2.081544236056257768e-01,3.678054272229350774e-01
3.137999999999999901e+01,-3.754938863522174625e-02,-2.226203012928688885e-02,9.737959304952465089e+00,1.402123911446088445e-01,3.190894607801637584e-01,1.591871881601725214e-01
3.139000000000000057e+01,1.182352844091784094e-01,-1.699480512593386575e-02,9.920687500227492350e+00,-1.857208193837317500e-01,5.063749250348136277e-01,-2.335464907604783286e-02
3.139999999999999858e+01,4.817837078612839663e-02,-3.967659903165779434e-02,9.894627298466247112e+00,-4.702233562858830831e-03,-2.959324998026827830e-02,3.383706913331387955e-01
3.141000000000000014e+01,-6.958614201447756165e-02,5.382178117506523224e-02,9.781510672521752880e+00,-1.482775732776987487e-01,-1.887212818825002303e-01,5.964979153038454246e-02
3.142000000000000171e+01,1.401429002266074697e-01,2.873401574965609578e-02,9.744963938494763056e+00,2.842140864892832020e-01,-3.147041617038321970e-01,9.051010512345221415e-02
3.142999999999999972e+01,-1.141671821739390497e-01,9.796468642954557493e-02,9.950242508596465640e+00,-1.376827588790850432e-01,2.933652097687035609e-01,-3.262251946663454610e-02
3.144000000000000128e+01,-3.767004299035654757e-02,-1.111973538919299592e-02,9.782516337905136083e+00,1.621560048005404875e-01,3.046413023197040021e-02,-5.487591595354076590e-01
3.144999999999999929e+01,-2.063148036193289056e-02,1.259998607876480492e-01,9.790130051501151343e+00,5.755147318795751643e-02,2.318806348405840767e-01,1.193399265324354280e-01
3.146000000000000085e+01,6.052237010182555388e-02,5.975093592733617121e-02,9.852107471333086508e+00,-1.188120288929395002e-01,2.578486728430064434e-01,3.566205214692153014e-01
3.146999999999999886e+01,1.115433297381134559e-01,1.176339672846689749e-01,9.887084762265978100e+00,3.194373825174661174e-01,-1.895046121882615620e-01,3.443397161377608207e-01
3.148000000000000043e+01,1.052791556902713532e-01,-5.958425749869131899e-02,9.944701028955375222e+00,-4.201943221128839889e-02,-2.089071218397873381e-02,4.275276846395329455e-01
3.148999999999999844e+01,2.237483195743062217e-02,1.567649750461473646e-01,9.862276682825978469e+00,-2.650994678853747510e-01,3.041646294364393488e-01,5.705415279543111368e-02
3.150000000000000000e+01,-2.802691044635667594e-02,-5.554849683359863732e-02,9.824727260652498018e+00,1.166925553248482697e-02,-1.642066522361568803e-01,1.685007047200010877e-01
3.151000000000000156e+01,-1.825984241627630345e-01,-5.086357693942227670e-02,9.833363564107399313e+00,-1.248992532895312479e-01,-1.855334150393838366e-01,-2.472286789884215463e-01
3.151999999999999957e+01,-1.314145854455216478e-01,-3.936580733982160407e-02,9.686213384297245099e+00,3.834006166251773262e-01,1.726366039165318569e-02,-1.183769178476039435e-01
3.153000000000000114e+01,1.766655489291435732e-01,-5.003092693543768205e-02,9.779643252411235110e+00,1.634408301094215643e-01,-2.852143472891338072e-01,7.114033099806033045e-01
3.153999999999999915e+01,-1.836071987502539415e-01,1.893553141181843757e-01,9.712017333010569686e+00,2.424643227219362152e-01,-3.565224948917460335e-01,-4.191600981747199972e-01
3.155000000000000071e+01,-7.844906432421096254e-02,5.218207249502249123e-02,9.892719418943158871e+00,-2.834851710503450417e-01,-3.659388307090662984e-01,3.941276706456885992e-01
3.155999999999999872e+01,1.144606282050089768e-01,4.958798289313351426e-02,9.745031337445986708e+00,3.241140769414424527e-01,4.725187977538242712e-01,-7.338477101587589368e-01
3.157000000000000028e+01,2.097132991973669341e-02,-1.891514521723922371e-01,9.923853042705939487e+00,-4.857429170939858709e-02,1.531155249368016669e-01,-1.765809327478003871e-02
3.157999999999999829e+01,9.280450710056922792e-02,1.285489643625067346e-01,9.762069453191706714e+00,-1.759546145109420756e-01,-7.896549012911352472e-02,1.004759005210335676e+00
3.158999999999999986e+01,5.428283512706765651e-02,-1.038461602786839022e-01,9.742949209547701273e+00,1.250392220871364701e-01,-2.231187459838257503e-01,2.524951169738689008e-02
3.160000000000000142e+01,1.469582537360886454e-01,-3.635387128408412282e-03,9.736104653188395019e+00,-6.885001138858926062e-02,6.733484349119965573e-02,-4.666060139399301754e-01
3.160999999999999943e+01,2.954272865648848931e-02,-7.041913444726992377e-02,9.667718436428534901e+00,-1.022145072676860222e-01,1.745937919409239203e-01,-1.905495053299031613e-02
3.162000000000000099e+01,6.634477291515113173e-02,2.396605292827974285e-02,9.726455430758734977e+00,2.446988617566039081e-01,1.699155197450515353e-01,4.277857907804145654e-01
3.162999999999999901e+01,-7.242465320583404975e-02,1.534061209870414277e-01,9.736115424012552921e+00,-3.040962669346757297e-01,-6.204935234420517753e-01,-1.702337618342298631e-01
3.164000000000000057e+01,5.863329755781368502e-02,-9.614222015656878617e-02,9.908732666155508184e+00,-1.216434598465307854e-01,3.260775144163636785e-01,-6.579592410421792881e-01
3.164999999999999858e+01,-3.961260979892287232e-02,-7.189427701617252808e-02,9.780964643427495275e+00,8.295373799411914773e-02,1.921922593616610941e-02,3.749939610720824934e-01
3.166000000000000014e+01,-4.531058679807124789e-02,1.395814786362795795e-02,9.790755540479713304e+00,1.111102085542312462e-01,-2.891294039488543910e-01,-4.399764868879235680e-02
3.167000000000000171e+01,8.947235146471377298e-02,1.569999374530773872e-01,9.769430915784695912e+00,-2.998554561101536842e-01,-4.609268817472276236e-01,1.352482835242969916e-01
3.167999999999999972e+01,9.016233760593639346e-02,-4.246134170066385299e-02,9.913536573292853760e+00,1.373855594641995859e-01,-3.136778047347162784e-02,-1.347470432607203450e-01
3.169000000000000128e+01,1.688442155746131546e-01,-7.162270303480160194e-02,9.827227073268298696e+00,1.106229811754201875e-01,2.716873269567086080e-01,-6.702501325619739658e-01
3.169999999999999929e+01,1.623263185486201188e-01,1.639056103568167083e-02,9.718168783356817997e+00,-1.960361793257391350e-01,2.467706601842465097e-01,3.209458775441486056e-01
3.171000000000000085e+01,9.173151613587754438e-02,7.485936734855386937e-04,9.678942515551986148e+00,-4.231015849957233677e-01,1.333752851900646685e-01,2.146970223039209313e-01
3.171999999999999886e+01,-1.720445610236712719e-01,-1.024988861237945414e-01,9.758193071433574062e+00,-2.344288178209150419e-01,8.511164671748447375e-02,-1.164653312923263212e-01
3.173000000000000043e+01,1.827680982949696498e-01,-4.053304198128172137e-02,9.931082749631331197e+00,1.879743045836405335e-01,1.415850619418895506e-01,-2.934550345229471335e-01
3.173999999999999844e+01,9.179676706663622565e-02,-1.967958113510384077e-01,9.795189940534841710e+00,-2.230852887261774650e-02,7.928437108042296622e-02,-1.810512061776352322e-01
3.175000000000000000e+01,-7.658600900863027361e-02,-3.041380426192333807e-03,9.926401486648863681e+00,-1.640016605762263380e-01,-1.313123011523966432e-01,4.780173345341731106e-01
3.176000000000000156e+01,7.289091555627823238e-02,-1.245939322458766291e-01,9.981976942382763340e+00,1.773328014474672976e-01,-2.536941566330596642e-01,5.181357530462866734e-01
3.176999999999999957e+01,-1.037265740962728389e-01,2.468951857850532061e-01,1.000518448209416356e+01,-1.108811282748216887e-01,-1.514365373641176626e-01,-1.668405799801759848e-01
3.178000000000000114e+01,6.186301201097418878e-02,5.548351347799823641e-02,9.777770672258391471e+00,1.999488515581496761e-01,7.436991711893332913e-02,-5.590882634311309385e-01
3.178999999999999915e+01,-1.316270041074099340e-01,2.537726866726249322e-02,9.725416236710758611e+00,1.219572427971149509e-02,-3.526008788335789346e-01,-6.215800522966224984e-02
3.180000000000000071e+01,-8.082184087866364774e-02,5.269533115733890383e-02,9.888124202803208362e+00,-3.285700599815389311e-01,-1.843916601700597568e-01,4.955898079529366673e-01
3.180999999999999872e+01,7.099291292005267817e-02,-4.913597361445778272e-02,9.699693496179113694e+00,1.442327316738530874e-01,-6.603735617529880864e-02,-6.386914975784232507e-01
3.182000000000000028e+01,1.072886742992893716e-01,-1.421803321724698400e-02,9.811447073620811921e+00,3.684063885514612252e-02,3.093504187140550532e-01,3.530182430497264545e-01
3.182999999999999829e+01,3.254368594338103576e-02,5.053927344875790845e-02,9.720256353874177080e+00,1.026096699140049417e-01,-1.783683255796764955e-01,-9.719242111122080585e-01
3.183999999999999986e+01,-2.861686366879706567e-02,-9.758855434545223029e-02,9.767697348652708556e+00,-7.662242419322279341e-02,-6.565289506058522018e-02,3.472721882856795728e-01
3.185000000000000142e+01,-2.114866295016990527e-01,6.831006975660190716e-02,9.800053697991375046e+00,-1.709347159104546154e-01,-1.238429682400623011e-01,-1.719228716090324682e-01
3.185999999999999943e+01,-2.090210996513597666e-02,2.107121458314908102e-01,9.763722555057453789e+00,1.955266667731315744e-01,-3.001600148115507460e-02,-3.171174377240910669e-01
3.187000000000000099e+01,5.334850768245277819e-02,-1.479898407918499859e-01,9.883884560477122605e+00,9.258078674917979978e-02,-1.459192129619576728e-01,3.008279620182482406e-01
3.187999999999999901e+01,-3.167651059356471621e-02,5.327766091780472557e-02,9.833874711929951218e+00,-4.713834084770408134e-02,-1.281692604459913065e-01,-3.451417849308742181e-01
3.189000000000000057e+01,-2.257794109441818488e-03,-8.184435661954603258e-02,9.712540890411602845e+00,3.771834953299355031e-02,3.754919632875728386e-01,1.222099954046183268e-01
3.189999999999999858e+01,-1.856174679179207684e-02,6.909460529419490793e-02,9.721361482213341176e+00,-1.379219311241500490e-01,1.780457090241184814e-01,4.557816893270733583e-01
3.191000000000000014e+01,-3.217062178214337431e-02,1.722372641094108148e-02,9.745073852879029275e+00,6.369639228257711894e-02,-1.787699744829340798e-01,-2.497129939291155232e+00
3.192000000000000171e+01,7.587738995981268067e-03,1.546272460745762578e-01,9.939569309339626457e+00,2.002790092621206108e-01,-7.298505332783723765e-02,-2.709320346636766352e+00
3.192999999999999972e+01,-2.726945821524605698e-02,1.201540800320753388e-01,9.883124371785731554e+00,5.366063237758537108e-01,-2.895095040498672778e-02,-4.595896692261748129e+00
3.194000000000000128e+01,1.443289553631942335e-01,-2.114760775747772659e-01,9.611246295133794248e+00,1.800719753237275955e-02,-2.496581468965330675e-01,-5.733094050618600335e+00
3.194999999999999929e+01,-2.206418848383732978e-01,-6.909224342097730620e-03,9.840124126257704162e+00,1.923395076806166670e-01,-2.433342516370521624e-01,-7.732168408246602453e+00
3.196000000000000085e+01,-5.458425859710776262e-02,-2.529242577639038980e-02,1.006134605925229941e+01,1.403419524760500525e-01,-6.914970405651420238e-02,-8.651522688095868219e+00
3.196999999999999886e+01,-8.702562235172253691e-02,2.225048156499695451e-03,9.841554270014736261e+00,8.348055531679711427e-02,2.333246312097408404e-01,-1.049099061905841879e+01
3.198000000000000043e+01,2.191106000344100399e-02,-8.609188022563377118e-02,9.802062415359365843e+00,-7.108366012745880036e-02,-4.278332029876102949e-02,-1.215694474303185579e+01
3.198999999999999844e+01,7.714478588312635894e-03,-9.034785184161650551e-02,9.746694068835509484e+00,-1.537057882848549550e-01,2.669151123565449354e-02,-1.351247847832655857e+01
