t,ax,ay,az,gx,gy,gz
1.911999999999999886e+02,8.267443031062925163e-02,3.504027945436088282e-02,9.909016751887058660e+00,3.400092291236800901e-01,-1.376143068002066427e-01,8.715320965701561784e-02
1.912100000000000080e+02,-7.987863651708965174e-02,1.105811290692619298e-01,9.849106384501251199e+00,5.068241492259498854e-02,-1.036501084674004147e-01,-2.028588468092395458e-01
1.912199999999999989e+02,9.332205155802827945e-02,9.883586232868540877e-02,9.822787711708851788e+00,-1.333242917791584714e-01,-2.165683524924224279e-01,-7.835121036685283036e-02
1.912299999999999898e+02,-6.113656473643300920e-02,-4.726145186207196536e-02,9.700829507814564323e+00,-1.367094699502136024e-01,8.939490390419986554e-02,6.699296820510455275e-01
1.912400000000000091e+02,1.439080361126012786e-01,5.026524400803606546e-03,9.748395545551060692e+00,-2.430757165042126966e-01,-1.495534718971844035e-01,-1.580867581508886288e-01
1.912500000000000000e+02,1.662437949792915093e-02,-7.689363116580695545e-02,9.699034357201856693e+00,-1.238037789463354993e-01,-2.455487000182000612e-01,2.405756701302101397e-01
1.912599999999999909e+02,6.410177204846530773e-03,7.701239857566703761e-02,9.673021098648701965e+00,4.160874443465193417e-01,-1.906197039267022997e-01,3.641473435951896320e-01
1.912700000000000102e+02,-1.789701272552643996e-01,-1.565194845388246520e-02,9.706299850370548654e+00,-2.132237901815010883e-02,-1.585109090519379316e-01,4.462333121586010698e-01
1.912800000000000011e+02,6.578891343618591125e-02,1.628402807615003112e-01,9.888564689567852284e+00,-2.674082628966868991e-01,1.096123041251282626e-01,-3.320038503917536188e-01
1.912899999999999920e+02,9.505707799052146023e-03,-1.608149832401351287e-01,9.844800706608733520e+00,4.773274684219541014e-02,3.493665184629584641e-01,4.973790803777879965e-01
1.913000000000000114e+02,1.741477580057892299e-02,5.039556398948150107e-02,9.805780201614160418e+00,2.685361115917429820e-02,8.312623779288202952e-02,-7.182949904816458842e-02
1.913100000000000023e+02,-9.307900935152867497e-03,2.547006310329494316e-01,9.713050896978909776e+00,-3.028766209908147558e-02,1.815351330292938950e-02,-2.942897073072528111e-02
1.913199999999999932e+02,6.251956600097755001e-02,-7.314053065536595122e-02,9.772696204890902294e+00,-1.437379473001387520e-01,-1.969887532918491307e-02,5.123360166055271891e-01
1.913300000000000125e+02,8.254715419951355604e-02,1.620682495710117077e-02,9.837366441886562285e+00,1.549910258082260739e-01,2.142356163134383484e-01,-7.398404499090415198e-01
1.913400000000000034e+02,4.840234770849874413e-02,-3.489469782909231099e-02,9.725764378212989669e+00,4.076315685205847972e-01,1.209989744509514797e-01,-4.140455550940690815e-02
1.913499999999999943e+02,1.317067913076971630e-01,8.983286002615217813e-02,9.781583869848420321e+00,4.844561196785027168e-02,3.065116692913733565e-01,-3.072678129216975182e-02
1.913600000000000136e+02,-7.192980317999896067e-02,-2.000656404795273235e-01,9.803307767342888113e+00,-8.577721965933902959e-02,-3.435361043283143706e-02,3.634897081834187471e-01
1.913700000000000045e+02,-5.928494752075841312e-02,-1.201618235254287015e-01,9.958715235477226813e+00,3.739830897554552447e-01,1.208123052841756917e-01,-8.482231243637089468e-01
1.913799999999999955e+02,4.067036839482900124e-02,-9.897816291866282090e-02,9.905372997114476163e+00,-4.619206981966499370e-01,1.230053674586300549e-01,-1.367746943502564094e-01
1.913899999999999864e+02,6.617784795792891472e-02,8.821540499667164525e-02,9.997604748689788323e+00,-5.079220187247922569e-01,4.063137477344243020e-01,-3.262649659342999331e-01
1.914000000000000057e+02,5.166955341262855633e-02,-1.791755288790725098e-02,9.751147107811506842e+00,-2.473910662228568924e-01,-6.026157003961703229e-02,-6.502744996413645229e-01
1.914099999999999966e+02,-1.287529174059209025e-01,-6.347899179490917865e-02,9.865597870753575194e+00,4.941575607222720712e-01,2.420284115593439311e-02,2.627443283013571884e-01
1.914199999999999875e+02,-1.202512040970880602e-01,4.099031026174723008e-02,9.838813287913747985e+00,2.669253819656786098e-01,4.159787345726141949e-01,9.938528061591832274e-02
1.914300000000000068e+02,-1.847867087480597678e-02,2.250546685574052186e-02,9.918426576907888759e+00,-1.346574174979535236e-02,1.432929907288004734e-01,-7.281230790486218352e-01
1.914399999999999977e+02,-1.789271948548838698e-01,-1.938751407134823787e-02,9.976977441398805269e+00,-3.639560937102526844e-02,1.977944505766801239e-02,-8.794889316525221490e-02
1.914499999999999886e+02,2.608970860571203920e-02,-4.966764521579245667e-02,9.703682571667993528e+00,-2.866509947093817678e-01,2.477542564195253996e-02,5.109623073808386429e-02
1.914600000000000080e+02,-7.483576567329805994e-03,-9.040367679755617614e-02,9.752065862473971336e+00,9.630146147297653780e-02,2.270326136851251730e-01,-1.577610567762278426e-01
1.914699999999999989e+02,-9.144619914712220909e-02,1.428534645497395728e-01,9.648977097561445504e+00,3.760374919557652462e-01,1.107820877786047098e-01,8.506434996655749814e-02
1.914799999999999898e+02,-5.517426457515363369e-02,1.496040304026297896e-01,9.887281527492904232e+00,-1.174326225083317521e-01,3.512105337221088086e-01,-3.174985708252128780e-01
1.914900000000000091e+02,1.097272883043094033e-02,-1.310970659121736548e-01,9.724793755023235065e+00,-5.959738177644929163e-02,2.885540498682456767e-01,5.723716982497071282e-01
1.915000000000000000e+02,-1.493523765083929755e-01,-3.886278364746650893e-02,9.731590388951516957e+00,2.473177945627030860e-01,2.343400758325870151e-02,-1.038397985563931369e+00
1.915099999999999909e+02,-6.034000328390805301e-02,4.532983743414809030e-02,9.861159078092001096e+00,1.950150803643150577e-01,-4.271719017258688855e-01,4.831166242225723439e-01
1.915200000000000102e+02,-2.633896878121382359e-02,-8.993203946420963435e-02,9.663813933065753758e+00,2.589026443744429570e-02,-1.976426178043361344e-04,4.395904162539405746e-01
1.915300000000000011e+02,-2.998011976493202002e-02,7.434276888213796342e-02,9.683902758739412420e+00,-5.057230316580372392e-02,-2.223818536007867719e-01,-2.736067613456492631e-01
1.915399999999999920e+02,-2.710610081026204252e-02,2.185949394833107060e-02,9.755731504993470082e+00,8.207682910043805069e-03,-2.636631740085256248e-01,-5.824383392057230768e-01
1.915500000000000114e+02,1.359054156247897771e-01,8.337485099914496156e-02,9.812654158457965181e+00,4.472107168531080229e-02,-1.531620284226019313e-01,3.310372281153562968e-01
1.915600000000000023e+02,9.485542996542414840e-02,2.318765977578814974e-01,9.775692397663071631e+00,6.938675608993871008e-03,-1.105881141266076562e-01,-3.718698194034373850e-01
1.915699999999999932e+02,-6.431357920283707619e-02,-1.668589070301688404e-01,9.827054833807777001e+00,6.874275849423097662e-02,2.801195488589877658e-01,2.600465370846551105e-02
1.915800000000000125e+02,-1.037194697766848500e-01,1.464718553473742801e-01,9.921480806001049757e+00,2.399539543823001608e-01,-3.293854712064783197e-01,6.980451679862439418e-01
1.915900000000000034e+02,-4.133502967604531925e-02,-5.232532849500207139e-02,9.866527403214099934e+00,2.220932403454236315e-01,1.710971152204154577e-01,1.680216280593671008e-01
1.915999999999999943e+02,1.227160176256758550e-01,7.044673967869016784e-02,9.746975285897413244e+00,1.718333123905388393e-01,-2.869415561532132064e-01,3.100754085799218851e-01
1.916100000000000136e+02,-2.127309541174645935e-01,5.621980623502714769e-02,9.748557611336620354e+00,1.511174500706659318e-01,-7.531018468757315343e-02,8.566651232892654733e-01
1.916200000000000045e+02,8.358674262930687604e-03,1.415032936241622519e-01,9.862836521960661074e+00,2.995735650928577631e-01,4.117247977020717098e-01,-2.597673362736266367e-01
1.916299999999999955e+02,-3.080536730706869356e-02,1.076556613588985217e-02,9.787479832080199671e+00,7.153881393215415219e-02,-9.561500117182207548e-02,4.534201449222939329e-01
1.916399999999999864e+02,1.198369010406861029e-01,-7.744314901219156999e-02,9.916893405827897467e+00,2.197803862675665534e-02,-2.174179797180026963e-01,-9.108613199596513610e-01
1.916500000000000057e+02,9.811478261603003015e-02,2.906209717054930586e-02,9.808679538317505830e+00,-3.347402002538739652e-01,-4.566730144011350578e-01,-1.011936353292336027e-01
1.916599999999999966e+02,-1.468138126616260475e-01,1.733050312773451174e-01,9.671518703481851276e+00,-5.600484878828546065e-02,2.918812707424638941e-01,1.528216769323024748e-01
1.916699999999999875e+02,1.196652534939477985e-01,3.971216421550618353e-02,9.825557175749485950e+00,-2.502391271471946510e-01,-4.082297611103059554e-01,-1.238443509005118015e+00
1.916800000000000068e+02,-2.333763907254147174e-01,-5.240557933477721364e-02,9.800819780118962044e+00,-6.624055102076047141e-02,-9.384113100650186279e-02,-3.319081205466926088e-01
1.916899999999999977e+02,6.122769888067473160e-02,-1.067518255896942464e-02,9.831631748255253100e+00,-1.555360199427210932e-02,-3.012121216735158535e-02,-9.857763056623468356e-02
1.916999999999999886e+02,7.020504838600158393e-02,2.992643633625774111e-02,9.680269979541490599e+00,1.952425899683044586e-01,-1.567898220579872492e-01,1.472077565441783087e-01
1.917100000000000080e+02,1.685167132047810101e-01,1.656476260510991727e-02,9.674658238220647632e+00,-2.101877129318847348e-01,1.756083150225703493e-01,-1.405853347779363605e-01
1.917199999999999989e+02,2.273448647115846807e-02,2.801954716273027599e-03,9.965696656677430099e+00,1.591808680777160312e-01,2.137560490304116767e-01,-3.607093320825869309e-01
1.917299999999999898e+02,-6.644311950343323447e-02,1.031120750462844460e-01,9.731489659463896658e+00,-1.775979413621718919e-02,6.822120122532832065e-02,-2.896320741033545088e-01
1.917400000000000091e+02,-1.008363161549680892e-01,2.073979998741795616e-01,9.773433062538188665e+00,-1.982232982035251612e-01,-1.986235217663264441e-01,1.886013258309680474e+00
1.917500000000000000e+02,1.460228179738962406e-01,9.994333931050157493e-02,9.616000449301433051e+00,-4.615301265003753928e-01,2.330454109110319527e-01,5.012383731782845686e-01
1.917599999999999909e+02,1.697111480473131873e-01,6.724148143868409477e-02,9.815789255268132507e+00,-2.091335159119261933e-02,-5.298156250338504902e-01,6.447222562956489433e-02
1.917700000000000102e+02,-4.484752309889156185e-02,1.082827370266150474e-01,9.637112834200252109e+00,1.396185951297415455e-02,2.983169187010195622e-01,3.928502545186493555e-01
1.917800000000000011e+02,2.218993860668766992e-03,6.962323009609588942e-02,9.800935537656071617e+00,-2.064593382660696082e-03,-8.290217636874439022e-02,1.608200217958938583e-01
1.917899999999999920e+02,1.363305800938277856e-01,1.950983132205847195e-02,9.829272290943224633e+00,1.618371562483029713e-01,-1.712329630295268690e-01,4.772093761482937846e-01
1.918000000000000114e+02,7.690683973394554784e-02,-5.293827443418619438e-02,9.755765687939785380e+00,1.782688888217072165e-01,-1.831823933439525043e-01,-7.526267707939067186e-01
1.918100000000000023e+02,-1.867788040786006604e-02,-5.295219781675442050e-02,9.871065704787381989e+00,2.044862631433471967e-01,-4.821653768762521053e-02,-2.252171612643011078e-01
1.918199999999999932e+02,-7.596591181946618643e-02,3.772072965106353787e-03,9.815067340641501659e+00,-5.826480648318156652e-02,1.221391561229286105e-02,-5.103404342912858382e-01
1.918300000000000125e+02,-8.412937416242130539e-02,3.423520265176379501e-02,9.844532395287346915e+00,-1.233629482830952973e-01,-2.491164816987224140e-01,1.692797735174246809e-01
1.918400000000000034e+02,9.533548629223614901e-02,1.188374014507128235e-01,9.786273177978193516e+00,-2.964626570942556494e-02,5.819333121572947687e-02,-6.684983418521800447e-01
1.918499999999999943e+02,-3.670027987358552568e-02,-5.635484372219487503e-03,9.810687076463734613e+00,4.150158088415858981e-02,1.381805675249519194e-01,1.069471018955859609e+00
1.918600000000000136e+02,-4.066189450645343872e-02,-2.987660793434532974e-02,1.002049080393215164e+01,2.542481108163963804e-02,-2.840356044071398744e-01,2.484761818522719101e-01
1.918700000000000045e+02,6.119036661702267899e-02,3.231235312693143957e-02,9.789680046840640415e+00,-4.954821346358502521e-02,3.051301461501481072e-01,-3.565560463487985055e-02
1.918799999999999955e+02,8.060179901581301584e-03,4.790265196127863750e-02,9.709087565584708202e+00,-1.492355216222293612e-01,-2.687298466889070925e-01,-8.133095612932129681e-01
1.918899999999999864e+02,3.894400177170319333e-02,-5.295840893186263415e-02,9.785511183261231594e+00,-3.137380363101990310e-01,-3.406938406220735155e-02,3.600420073050599190e-01
1.919000000000000057e+02,-3.240334108451713158e-02,-6.682796672051728726e-02,9.901842850700623089e+00,3.833913632021057061e-01,7.978672819382215398e-02,8.627577470222828893e-02
1.919099999999999966e+02,-3.656113189940691371e-02,8.612558228268880900e-02,9.710361218839414832e+00,-1.118500024462015241e-01,1.623972706079871223e-02,8.147745614776864542e-01
1.919199999999999875e+02,-7.344400000857141675e-02,2.614833500273620881e-02,9.597108681676827402e+00,-1.728121102421074917e-01,1.864866722671606192e-01,2.565244784459737915e+00
1.919300000000000068e+02,7.089682397369978517e-02,1.730019442753287784e-01,9.556255553500440314e+00,2.433401954892160379e-01,1.351107070182746596e-02,3.779550104953827816e+00
1.919399999999999977e+02,8.505322082348757209e-03,9.954317566266576711e-02,9.813539001781515836e+00,-2.376704498226504467e-02,-2.898491652584788136e-01,6.009098884210844815e+00
1.919499999999999886e+02,2.931555559996933125e-02,8.130190208591057954e-02,9.754289012497515898e+00,3.361479452704058818e-02,-1.595452994787253109e-01,7.699207008704112454e+00
1.919600000000000080e+02,-1.019736547341668631e-01,-1.279000327880641663e-02,9.909290329921708107e+00,1.607046006277456085e-01,-1.015703121613563548e-01,8.561948770254149466e+00
1.919699999999999989e+02,6.957074159398468627e-02,1.226377007395045848e-01,9.790315015260240727e+00,1.862976798761039054e-01,3.190842939687721369e-01,9.564367598557197425e+00
1.919799999999999898e+02,3.120795537842440195e-02,4.022477068120884625e-02,9.953611871403534650e+00,9.594440960565842058e-02,-7.612785910045649640e-02,1.250168690225710577e+01
1.919900000000000091e+02,7.303037466391790189e-02,2.692619118249527099e-02,9.653340124355706209e+00,4.600311549913389288e-03,-2.326725362114695772e-01,1.293850841385457962e+01
