t,ax,ay,az,gx,gy,gz
1.215999999999999943e+02,1.055370957862353243e-01,-2.961695188561570546e-01,9.831426375900571557e+00,2.187280623232007448e-02,-3.649372903681860070e-01,-1.521084089064477496e+01
1.216099999999999994e+02,-1.321702711708498505e-02,-3.508083740271678574e-01,9.833472144111864210e+00,-1.575260469892948434e-01,3.294415316738610183e-02,-1.477162127646559675e+01
1.216200000000000045e+02,1.005858984465857475e-01,-4.503220934262947006e-03,9.833322732309781600e+00,-2.040828788773286009e-03,3.562572806855361374e-01,-1.548243938526742447e+01
1.216299999999999955e+02,1.875747931909740179e-02,-1.679045088862218260e-01,9.835735823557373081e+00,4.624470762846308869e-01,-1.937986156944443428e-01,-1.488652087227246668e+01
1.216400000000000006e+02,-4.742991658195740146e-02,-1.704393980816466814e-01,9.785899369111064061e+00,-1.014989645641514865e-01,-1.123223556708509430e-01,-1.559834707319203417e+01
1.216500000000000057e+02,-4.331418994366356690e-02,-2.010477748249112628e-01,9.706324321559398172e+00,-3.116522880744206359e-01,2.488047058545530058e-02,-1.536204023015561582e+01
1.216599999999999966e+02,-1.166058118578336134e-01,-2.497715979378715423e-01,9.768465364432877607e+00,-2.341432118583244015e-01,-2.045669332793339790e-01,-1.451702780193995679e+01
1.216700000000000017e+02,2.403181925697177312e-01,-1.627399967531684422e-01,9.772843443325303525e+00,-3.166994889314576206e-02,-1.829469469840409521e-02,-1.413477147088262598e+01
1.216800000000000068e+02,1.110512551512440327e-01,-8.598988616717777311e-02,9.799993107388759839e+00,1.035569016866763059e-01,1.523203978174174633e-01,-1.462721561207241550e+01
1.216899999999999977e+02,6.037255754575324845e-02,-1.694763658677373441e-01,9.960968043570701980e+00,-1.966367692058983430e-01,-5.911325393981792242e-02,-1.522048013875916972e+01
1.217000000000000028e+02,-1.303309683608016578e-01,-6.192280546551302833e-02,9.791315575179259767e+00,6.336791749657233463e-02,-3.749973057128576648e-01,-1.496456356919412478e+01
1.217099999999999937e+02,-4.516260887061294277e-02,-9.788619431157630224e-02,9.728567580612621057e+00,-8.420108046069868513e-02,1.213535466460524265e-01,-1.476079855079846581e+01
1.217199999999999989e+02,-9.753336776902221672e-02,-7.639296401276803039e-02,9.962833750951679335e+00,-3.858373929143509018e-02,-1.210153196043317891e-01,-1.493194280765755622e+01
1.217300000000000040e+02,1.275682330539122146e-02,-1.483517309900084236e-01,9.643702104566933997e+00,-3.479710652189723086e-01,4.806701102482360821e-01,-1.514606630285814148e+01
1.217399999999999949e+02,-9.273072539306401185e-02,-1.830301873650193312e-01,9.683055356236611289e+00,-5.693596070349883631e-02,2.958869472293881864e-01,-1.528056468582419569e+01
1.217500000000000000e+02,-6.702905804494489750e-02,-2.817434474499300734e-01,9.873287973696973197e+00,-2.300357341460580740e-01,-6.181673239413274651e-02,-1.541162953093810373e+01
1.217600000000000051e+02,-9.011549513389546795e-02,-6.813507695907827788e-02,9.604555295454245467e+00,3.444962605119979149e-02,1.010992380461748497e-01,-1.567884215389399039e+01
1.217699999999999960e+02,-2.397533247641409071e-02,-1.410670144973368012e-01,9.731135997008696137e+00,-5.979571490837318204e-03,-1.789491224887514997e-01,-1.565103125988484400e+01
1.217800000000000011e+02,7.142498043680509459e-03,-1.921435688529196106e-01,9.772962284651761422e+00,4.177283718563948867e-01,1.884828902179977450e-01,-1.423852881889817823e+01
1.217900000000000063e+02,-2.132619440129809515e-02,-2.802805455785611910e-01,9.745055773079938533e+00,-1.278596644417475392e-01,8.698736557148843695e-02,-1.548908877751535762e+01
1.217999999999999972e+02,1.532906465411626173e-01,-3.986497185726783909e-02,9.724603037659532490e+00,1.907737449136893138e-01,2.416635267353650640e-01,-1.522293568969188549e+01
1.218100000000000023e+02,8.111069044531379890e-02,-1.680429318862557697e-01,9.821137302250642520e+00,1.818172469600802532e-02,-2.203349145534635456e-01,-1.543601929292993979e+01
1.218199999999999932e+02,-7.830327985989050943e-02,2.160285708031398078e-02,9.815688443863759716e+00,2.288039902505434042e-01,-4.337256774721481162e-02,-1.519627021900276453e+01
1.218299999999999983e+02,3.256056814434220986e-02,-3.738028367774242078e-01,9.747834892512745597e+00,4.101995172279444546e-01,3.823348580206189506e-01,-1.492483709307606610e+01
1.218400000000000034e+02,-7.006611020632973197e-02,-1.353804155536694753e-01,9.678659897207994689e+00,-3.513720119635479339e-02,3.528272132278380546e-01,-1.416162819595671252e+01
1.218499999999999943e+02,-3.951239282806880138e-02,-3.023817609524271366e-01,9.782222700800888404e+00,-8.007738973863309795e-02,-1.015252308348568305e-01,-1.423592900035068354e+01
1.218599999999999994e+02,4.791972032760403316e-02,-2.399081138193559504e-01,9.761278185181101463e+00,1.249316665108222459e-02,-2.611006638997021567e-01,-1.539041533553842100e+01
1.218700000000000045e+02,6.656499905839105558e-02,-1.943404454369283829e-01,9.835151558119656912e+00,-4.507434363113305698e-01,-2.553598078618753153e-02,-1.484048610466760110e+01
1.218799999999999955e+02,-5.874320142889945251e-02,-1.042383817589107586e-01,9.760012730162396011e+00,2.002859986064947292e-02,-1.043326586443297926e-01,-1.480294565195875833e+01
1.218900000000000006e+02,-1.104869586785508784e-01,-1.394622011696241282e-01,9.781213957655584323e+00,-2.098921519236415512e-01,1.109615093999523766e-01,-1.503081712268853032e+01
1.219000000000000057e+02,8.770349772433119404e-03,-2.214755150887324775e-01,9.890637136039771349e+00,-1.075610688358660250e-01,1.172591232435605257e-01,-1.528244365435209495e+01
1.219099999999999966e+02,4.346224085819436200e-02,-2.335499114335925497e-01,9.948287336182197294e+00,-9.685946021387885352e-02,-1.555707479563657181e-01,-1.459627288667490852e+01
1.219200000000000017e+02,-6.382888306167251724e-02,-3.382167946266909642e-01,9.834468464035005297e+00,1.601482759185651750e-01,-1.481921189140898154e-01,-1.495869974373522737e+01
1.219300000000000068e+02,8.165545175655981869e-02,-2.278543734738283921e-01,9.677120814144251071e+00,5.402297469665125716e-03,-1.487707932153933266e-01,-1.440203098846232521e+01
1.219399999999999977e+02,6.392930032654406403e-02,-2.410665644918065231e-01,9.683884196454997095e+00,-9.230056310838662126e-02,-8.268533356925911182e-02,-1.482534914071434962e+01
1.219500000000000028e+02,-6.528710359036057898e-02,-4.759072553972935882e-02,9.919216361317740649e+00,-1.169143571763220368e-01,3.286625927796303637e-02,-1.479922904788009141e+01
1.219599999999999937e+02,1.130162185859163726e-01,-2.064582371199725486e-01,9.832281035526930779e+00,-9.227406527830460392e-02,-6.507975214440105127e-02,-1.477054939302970560e+01
1.219699999999999989e+02,1.160727284317493030e-01,-2.056230005781835013e-01,9.784694074345811288e+00,3.078596283934388889e-01,-2.930600893553418351e-01,-1.420395295901707122e+01
1.219800000000000040e+02,2.067668105623624852e-01,-1.456833773407466559e-01,9.907105472297656590e+00,-1.127481633391482219e-01,1.808545085217331538e-01,-1.486917227571002798e+01
1.219899999999999949e+02,1.711759717983775131e-01,-2.999559807580182147e-02,1.003147522464729668e+01,2.044201495382798051e-01,-2.710457936094651243e-01,-1.542284894188954603e+01
1.220000000000000000e+02,-9.026132225242168572e-02,-3.203657091869926976e-02,9.759106625193975759e+00,-9.980407172870821297e-02,-3.660368120600552416e-02,-1.504700299549548603e+01
1.220100000000000051e+02,9.249825208658010722e-02,7.244916865143249951e-02,9.882901648540048711e+00,-6.590492803998513338e-01,-1.582834281269561993e-01,-1.448607433408657741e+01
1.220199999999999960e+02,8.796292965893136306e-02,-3.067088437898014552e-01,9.886432001311852957e+00,-4.699103526901899919e-01,2.127506022157051868e-01,-1.477630383647518109e+01
1.220300000000000011e+02,-3.484831994228694552e-02,-1.502823992311379253e-01,9.674023760683418516e+00,-1.588454206624952680e-01,1.460361766892510627e-01,-1.400280551936753959e+01
1.220400000000000063e+02,4.549247280660323467e-02,-1.770800711629076929e-01,9.811684259789444695e+00,1.945289501841369617e-01,-6.946269972798567449e-02,-1.415997214359054190e+01
1.220499999999999972e+02,-1.877623650223818053e-01,-3.490070317808553479e-01,9.831467928059055339e+00,-8.411091825810268485e-02,2.886233534103155862e-01,-1.416660968976495028e+01
1.220600000000000023e+02,-1.905385667892966484e-01,-2.833629179018996580e-01,9.877814123875069185e+00,-2.034028665651060330e-01,2.242449975294687481e-01,-1.403433670566376357e+01
1.220699999999999932e+02,-1.714641940467349357e-01,-7.565974559065660743e-02,9.814734495744511733e+00,-5.114342824760564898e-02,-2.354913059180881452e-01,-1.480864575864135091e+01
1.220799999999999983e+02,3.892569214267273259e-02,-1.139971328377332171e-01,9.761707850015888255e+00,1.223085996015830512e-01,6.346167253417100973e-02,-1.530643052529397075e+01
1.220900000000000034e+02,4.365091319200617437e-02,-1.147531493682380499e-01,9.735997496130091022e+00,-1.876921335100134869e-01,-3.958087195930093394e-02,-1.434355303020150707e+01
1.220999999999999943e+02,-2.738841131744199769e-02,-1.219208133908917246e-01,9.753061307552316705e+00,9.675178509959728515e-03,-1.154095993225826150e-01,-1.517646020176033161e+01
1.221099999999999994e+02,1.721169128759263978e-01,-3.351177227064047748e-01,9.774478740868246973e+00,-1.720474853243681712e-01,-2.215642260891576842e-01,-1.560979593955513778e+01
1.221200000000000045e+02,9.870754029092849990e-02,-2.764626023529711540e-01,9.816558319554976819e+00,2.528295196519386723e-01,1.727317633373964822e-01,-1.457274147329146707e+01
1.221299999999999955e+02,-1.598313184789831032e-01,-2.202938622009666392e-01,9.954141577491807169e+00,3.866923803283036087e-01,1.269874750192480362e-01,-1.465649649996822568e+01
1.221400000000000006e+02,-1.719742058854228581e-02,-8.369997728618414068e-02,9.982834698215249603e+00,9.418193819905820718e-02,-8.525224465448459632e-02,-1.555236054745916618e+01
1.221500000000000057e+02,-9.396853161813034649e-02,-1.534946747667091937e-01,9.955460229821799345e+00,-1.913926095673365857e-01,-1.357585374378795506e-01,-1.481726093850910431e+01
1.221599999999999966e+02,4.139958687215099242e-02,-7.624788937058171734e-02,9.720866797615421717e+00,-1.285052672062129420e-01,-9.930514841524579195e-02,-1.491408708614226164e+01
1.221700000000000017e+02,-3.057892476537168655e-03,2.892076129429782538e-02,1.003024672745574897e+01,-3.630626148311327100e-02,-1.318829842969124200e-01,-1.487701043112940980e+01
1.221800000000000068e+02,-8.829783739064431258e-02,-3.255632544753348512e-01,9.857629770029204153e+00,-3.924492742318353433e-01,1.690630504049290550e-01,-1.466005780234338474e+01
1.221899999999999977e+02,1.694472530527935672e-01,-1.786041977917568746e-01,9.692535478394368909e+00,1.735910893902408714e-01,-1.349449615208871966e-01,-1.429876467556568898e+01
1.222000000000000028e+02,5.739690795874399787e-03,-1.781614590052822411e-01,9.781517865269014678e+00,-4.228348709801373895e-01,5.080273926228678211e-02,-1.461944821722139665e+01
1.222099999999999937e+02,-4.160395394702413180e-02,-2.495414677235593126e-01,9.891418720470095849e+00,-3.640492600647305399e-01,-1.919322743567295486e-01,-1.539162911602705641e+01
1.222199999999999989e+02,-2.531399494603059006e-02,-1.226547081185689059e-01,9.816854889994507616e+00,-1.723857771732626443e-01,-2.503096800270683889e-02,-1.519093688112048568e+01
1.222300000000000040e+02,1.618668046208626699e-01,1.188855144170067046e-01,9.730336750096801879e+00,-2.541932194037943571e-01,-3.501815930301404034e-01,-1.485162451777190284e+01
1.222399999999999949e+02,9.112746398340557108e-02,-2.614732266406329941e-01,9.806906460663601166e+00,1.837628510924256831e-01,1.976175879383673117e-01,-1.552514732508974582e+01
1.222500000000000000e+02,-1.623511081651177190e-02,-1.064480699690519561e-01,9.823590189224802316e+00,-2.949845113835888183e-03,-2.307700738726025935e-01,-1.523968522288258498e+01
1.222600000000000051e+02,-9.920896800996220621e-02,-2.712021111511792038e-01,9.810073668098176825e+00,1.379142447648360782e-02,-2.685137339624398822e-01,-1.510108046053961139e+01
1.222699999999999960e+02,-8.361951381595797428e-02,-3.471767204898250636e-01,9.769643368077874257e+00,1.250710774831676753e-01,1.702522114732783198e-01,-1.525803926823509649e+01
1.222800000000000011e+02,-4.821426110046992536e-02,-2.280329956262855395e-01,9.746403756145632258e+00,4.266207813167557927e-01,-2.094242815763308896e-01,-1.540206705113975261e+01
1.222900000000000063e+02,5.071657592155540822e-02,-1.393751592408787043e-01,9.792937288199142998e+00,-1.703650062928680209e-01,4.524946703194131920e-02,-1.587089353703217043e+01
1.222999999999999972e+02,7.565319009867108035e-02,-1.267508366694337640e-01,9.839613960743555765e+00,-1.525615621175371341e-02,1.421056526256665453e-01,-1.531506370081329038e+01
1.223100000000000023e+02,-7.255411589750426771e-02,1.107838252956680480e-02,9.903463214761853095e+00,1.869625864103401092e-01,-6.574846564811872261e-03,-1.498072349365289746e+01
1.223199999999999932e+02,8.007601833715027873e-02,-1.388095536281606368e-01,9.985649700654072092e+00,-2.498290430073522583e-01,-7.007402675402583936e-03,-1.421083975261947074e+01
1.223299999999999983e+02,-9.086158879680972245e-02,-1.653050258768640202e-01,9.880784657017114725e+00,1.297504625780895038e-01,-1.253157806429131271e-01,-1.485475818329120479e+01
1.223400000000000034e+02,-6.117736539655199701e-02,-8.337494039336920681e-02,9.843714815969324405e+00,-2.187445691937895953e-01,-3.831421325342135309e-02,-1.522987688880995982e+01
1.223499999999999943e+02,-1.449523520705461310e-01,-1.418508088162850345e-01,9.815879232943510502e+00,3.071187422373715392e-02,2.619849091780899752e-01,-1.492720095017208237e+01
1.223599999999999994e+02,-1.479307746183389505e-01,-1.690412261671481731e-01,9.809166365960178879e+00,9.306092749892053151e-03,-1.423432243575884770e-01,-1.556576431074211442e+01
1.223700000000000045e+02,-9.194273607965344763e-02,-1.847010763335865946e-01,9.775763047357617808e+00,-5.937506095299917297e-02,-1.125443614914720947e-01,-1.464757389728143622e+01
1.223799999999999955e+02,-2.573175588935255192e-03,-1.030626891794938771e-01,9.850263924109235347e+00,-2.059604429280467164e-01,-1.888223222779783772e-01,-1.456473590528397999e+01
1.223900000000000006e+02,-9.939813806107904159e-02,-1.138356686540461099e-01,9.617409828876628097e+00,1.519790015415633522e-01,4.081358770311142026e-01,-1.456298232161591777e+01
