t,ax,ay,az,gx,gy,gz
1.991999999999999886e+02,-1.437263618080426679e-02,-3.650564379627370404e-02,9.690058854689173273e+00,-1.585152067195726502e-02,2.408788026688004139e-02,-1.550219328455355594e-01
1.992100000000000080e+02,8.139385745238240932e-02,-7.387397071490306444e-02,9.809171919178615084e+00,-1.486056244343965937e-01,-4.568239180759896545e-01,2.334669700863730921e-02
1.992199999999999989e+02,-2.512028128593588733e-02,-4.471303587657996653e-02,9.762154454852124630e+00,-2.394167625789109521e-01,-6.045099465749440015e-02,9.867058542359553597e-01
1.992299999999999898e+02,8.273792225487876933e-03,1.382039383225125428e-01,9.695487306536678673e+00,2.636782982006178888e-01,2.803465856521041369e-02,7.071335577695705421e-01
1.992400000000000091e+02,1.250309188897514856e-01,-8.288870132204190222e-02,9.742994022577819990e+00,2.256102556568587159e-01,-4.993588107185311514e-02,2.333312838314351989e-01
1.992500000000000000e+02,-3.386591877893676411e-02,3.896795110976418453e-02,9.707098387063968659e+00,2.459021268333401178e-01,-1.885568865700817387e-01,-3.075044863311094390e-01
1.992599999999999909e+02,1.473158757314463607e-01,9.978689681036144454e-02,9.821111431482593801e+00,3.372503374754248252e-03,-1.833265490250497454e-01,1.636020085579362182e-02
1.992700000000000102e+02,-1.605433666335835396e-01,1.199076724818616546e-01,9.765257955107109922e+00,-1.983465863989262168e-01,-8.749594304417576685e-02,9.915860612158404475e-02
1.992800000000000011e+02,-3.927514379535222699e-02,1.454419995005375721e-01,9.826743882724780832e+00,-2.176646609610742855e-01,-1.331304171691956861e-01,-4.343610503505542231e-01
1.992899999999999920e+02,-1.365144502345952970e-01,4.705903283110404733e-02,9.681478414053438897e+00,1.272020633490936470e-01,1.479196923650082651e-01,-3.253698603071224493e-01
1.993000000000000114e+02,1.166985632258032458e-02,3.729362608803012819e-02,9.848155328204127201e+00,4.655817702503707856e-01,2.831261946250717698e-01,-1.524820326911531868e-02
1.993100000000000023e+02,7.509916217780057690e-02,-5.683097047303459215e-02,9.969894906490544884e+00,3.119582902220104925e-01,-2.471860071062283171e-01,-5.062284556433627181e-01
1.993199999999999932e+02,-1.612166055924357105e-02,-1.969257286060860090e-01,9.837292723427298213e+00,1.233806843957395705e-01,-3.947493361260717704e-02,-5.629527316793506847e-02
1.993300000000000125e+02,-4.744304086497581896e-02,-5.955202461310660222e-02,9.915117250821175787e+00,9.104976155681002159e-02,1.095969207648060141e-02,-1.610528577236218506e-01
1.993400000000000034e+02,-1.359619547271666284e-01,1.591578394013892089e-02,9.782803905368179898e+00,-5.355922168468884442e-02,4.962474854594492446e-02,1.020459814797549658e+00
1.993499999999999943e+02,1.681334911156589784e-01,1.013603911034223898e-01,9.778728996223584602e+00,1.655175656461744249e-01,-1.205902621460594182e-01,3.193798117562980932e-01
1.993600000000000136e+02,-2.241186379387593002e-03,1.501340294323796343e-01,9.875586638394489469e+00,-1.366243619559276701e-01,-2.123353991792933937e-01,1.770185223935090368e+00
1.993700000000000045e+02,-4.521430175905827298e-02,6.513552952630309850e-04,9.787767252625169334e+00,-4.485970476894015069e-01,8.342919969982318107e-02,-7.748505356555007717e-01
1.993799999999999955e+02,1.562532413547809973e-01,1.124421124496454427e-01,9.916030637559209993e+00,-1.511115494574507001e-01,-4.110587567051184749e-02,2.543567914410165831e-01
1.993899999999999864e+02,-3.520453553716839518e-02,1.674301261768521704e-02,9.798671072623562850e+00,-3.671628555252785808e-02,2.414360977019112120e-01,-7.166297632242390678e-03
1.994000000000000057e+02,-9.103623274331722193e-02,2.080634675478787443e-02,9.831810994765458389e+00,-2.618016088788947537e-01,6.946328458450898302e-02,-1.037811833068536194e+00
1.994099999999999966e+02,-7.102805552766089381e-02,-2.992101099294632027e-02,9.760313606460719882e+00,2.061008430184950169e-01,-2.114100265272313497e-02,-2.097316683217319011e-01
1.994199999999999875e+02,-8.572399555835664986e-02,-4.755587668758437525e-02,9.681043223542591392e+00,-1.669117858319262571e-01,-4.276686949312261676e-01,6.274773333402566822e-02
1.994300000000000068e+02,-1.066028166714510922e-01,-5.818218533074170917e-02,9.797069168312276588e+00,1.901640272813997778e-01,-2.133562747549858085e-01,-8.229252888848118119e-02
1.994399999999999977e+02,-6.934365427720093344e-02,-5.502864153919676676e-02,9.785887764690551549e+00,1.410295660751771374e-01,-3.365515468413991795e-02,5.450645535450424628e-01
1.994499999999999886e+02,2.414950633712375228e-01,-6.743420188177848273e-02,9.755380132107321245e+00,-6.972624126171519596e-04,-8.732900155178946119e-03,-1.630291227246500885e-01
1.994600000000000080e+02,-1.149822965307472772e-01,8.501584408086887423e-02,9.857958107401548986e+00,7.796897828429188992e-02,4.630745544190968954e-01,1.431838735159711717e+00
1.994699999999999989e+02,-1.492151957313311850e-01,1.268851161825871043e-01,9.919351915919344620e+00,1.470211743467548793e-01,1.167316455613867307e-02,-9.838266066919459929e-02
1.994799999999999898e+02,2.780294675789353812e-02,-7.591316397452661791e-02,9.929895227840459526e+00,-3.030926385716189997e-02,5.969841546578710800e-02,-9.413646056174838073e-01
1.994900000000000091e+02,-7.596637906463990508e-03,-8.925552597024509482e-02,9.796844682845021524e+00,3.519106034913364045e-01,-1.456286863208614002e-02,-2.476859198425050701e-01
1.995000000000000000e+02,6.600409565708283133e-02,-1.863530231141571555e-02,9.752653748216127738e+00,-2.784729905319681120e-01,1.080238010212348013e-02,2.656211644465528154e-01
1.995099999999999909e+02,-5.540843202239442711e-02,-8.727074063905332357e-02,9.727228184088401619e+00,-9.138265885766774788e-02,-1.811335334262796914e-01,-6.284459151623907891e-01
1.995200000000000102e+02,-8.685133873043879293e-02,-1.017493346947953015e-01,1.002414722676770431e+01,-8.768559459403071563e-04,-7.162323175174793721e-02,-3.947458150753918038e-01
1.995300000000000011e+02,1.673719767482646781e-01,-3.487981273863158954e-02,9.939196542389506561e+00,4.349875441394934206e-01,-3.967127114412274391e-01,1.026281745471510298e+00
1.995399999999999920e+02,-1.611689584555470456e-01,2.435501596744062136e-02,9.814870631482223828e+00,-1.729012710531915020e-01,-1.290838045258196898e-01,-3.479999779249384750e-01
1.995500000000000114e+02,3.605988992629755030e-02,2.311376249996897544e-02,9.607418999844615115e+00,3.463426255342858529e-01,-2.275216270709738003e-02,1.051990138357848270e+00
1.995600000000000023e+02,6.903029280919346922e-02,-3.134396626938514008e-02,9.797211525904847562e+00,-1.313577454660620480e-01,3.805983564670869512e-01,1.811861978273989482e-01
1.995699999999999932e+02,8.217021225148195274e-02,-5.244964951971858858e-02,9.898561526970331315e+00,1.925079686325126549e-01,6.342095632406413719e-02,-5.285211122484957391e-01
1.995800000000000125e+02,-3.033812681372538567e-02,6.087910030568547542e-02,9.738119968812640082e+00,-4.396237793633875346e-02,6.085527658970740078e-02,-7.330492201136438180e-01
1.995900000000000034e+02,-1.248221889790417927e-01,3.884913509085979183e-02,9.696403047219201099e+00,-2.410812986954737613e-01,-1.824150841453335281e-01,3.144183013764348389e-01
1.995999999999999943e+02,1.499514029392777781e-01,1.722287125242782935e-02,9.877026900092344519e+00,2.542072356076719997e-01,-6.808762896348917459e-02,1.187127241349867496e-01
1.996100000000000136e+02,-4.455442533670452010e-02,-5.643327406695412135e-02,9.812650594807729831e+00,-4.560950785087238002e-02,1.176309546498783692e-01,-5.958417588913637042e-01
1.996200000000000045e+02,1.529997981081265834e-01,1.333083445007234580e-01,9.814397472260212751e+00,-1.623473921615439797e-01,-1.817949896032517720e-01,6.115414786512559653e-01
1.996299999999999955e+02,3.680739465710778507e-02,-1.310742890555486873e-01,9.812168114763215598e+00,-6.940795422238421608e-02,-3.148704269532212607e-02,-2.075417650026572525e-01
1.996399999999999864e+02,-4.839240117725786272e-02,-5.592091325155460618e-02,9.679911452286846796e+00,-2.542365780500474015e-01,2.983702997582806105e-01,-2.863700387252025026e-01
1.996500000000000057e+02,3.934430472833982950e-02,-9.866712743075210790e-02,9.740307708127906139e+00,-1.047350714678727118e-01,-4.930995595707822476e-02,-4.493753449666089139e-01
1.996599999999999966e+02,1.150801957057919767e-01,1.732187991161985002e-04,9.805180800069539515e+00,3.046894017138184613e-03,9.709605367735435477e-02,5.686530115109161149e-02
1.996699999999999875e+02,8.208825049054352049e-03,-6.673073981673736943e-02,9.681306751506358665e+00,7.490006980912004841e-02,-2.995471137905368342e-01,7.459967521647511979e-02
1.996800000000000068e+02,-7.375824425574512011e-02,9.414847706739519831e-03,9.718129287254134496e+00,2.247677212329266538e-01,-6.747640529807330534e-02,7.119834035264691607e-01
1.996899999999999977e+02,-1.787552994144324670e-01,5.236300439436513549e-02,9.959851311326646695e+00,9.128502802094538848e-02,-1.589390355577812441e-01,5.474185515420938453e-01
1.996999999999999886e+02,-4.242568728972784947e-02,1.264795039634479812e-01,9.833647511912197103e+00,-5.839341521225521747e-01,1.846791260406679402e-01,-7.205669130161285185e-01
1.997100000000000080e+02,8.076405808854909829e-02,2.145019237779434082e-02,9.833116315937150631e+00,1.377850631801404713e-01,1.551857946275464195e-01,-5.670930346233333808e-01
1.997199999999999989e+02,-1.010333850236438541e-01,1.991683129053196596e-02,9.881679487848465726e+00,-2.261541059079784088e-01,1.004884215718057638e-01,2.365829825916890283e-01
1.997299999999999898e+02,6.811620645961634357e-02,4.302733524487433597e-02,9.870900934920998182e+00,5.690691267535045311e-02,7.104861307409821025e-02,-8.000371817028971710e-01
1.997400000000000091e+02,2.819907572023541784e-03,-2.284967335234779073e-01,9.825783195937788150e+00,9.921044716405312547e-02,2.739286713649605187e-01,4.438562740307933630e-01
1.997500000000000000e+02,7.454953375768243184e-02,5.749812550782825576e-03,9.736747021392087476e+00,2.275728762787313786e-01,-4.072888812047801288e-01,-1.555427041908326591e-01
1.997599999999999909e+02,-2.339231900406872899e-01,-1.107327939527917721e-01,9.710958975332200538e+00,1.714864128020014977e-01,4.327185304916260633e-01,5.754023770222799206e-01
1.997700000000000102e+02,-1.420335132765473407e-01,-6.490079953219432540e-02,9.845362026108631426e+00,-1.118830462536148374e-01,-7.492575983929343486e-02,7.904935525140369679e-01
1.997800000000000011e+02,-4.625983328395941868e-02,-1.199791705971514459e-02,9.961270685362162425e+00,3.042547889421252649e-01,6.115015321569202689e-01,-4.303747857574306834e-02
1.997899999999999920e+02,1.866273076268167852e-01,9.524610014891332632e-02,9.573644605645613481e+00,-1.084062444434006900e-01,-7.946619122426012982e-02,1.059417363470690931e+00
1.998000000000000114e+02,-7.542681612914635403e-02,-1.767483924267735929e-01,9.891259283805881708e+00,-1.702928388818604200e-01,1.526469930520209517e-01,-5.621498004978946472e-01
1.998100000000000023e+02,-1.267833066386698550e-02,2.390525640969476742e-02,9.684574458903364658e+00,1.916941121535415682e-01,2.794488945238149946e-01,1.007543424518635988e-01
1.998199999999999932e+02,2.150730688496050313e-01,1.035772352693004224e-02,9.850590521191341153e+00,1.013621394932509995e-01,6.980560533883947705e-03,3.322780791336794604e-01
1.998300000000000125e+02,4.286371027612596168e-02,4.310836654810799168e-02,9.786915569032473172e+00,-2.197147469059498176e-02,-3.362086762464897571e-01,-2.241762655717271235e-01
1.998400000000000034e+02,8.596300943629370250e-02,2.236778118097074997e-01,9.767940315779419791e+00,1.656184205719050118e-01,-1.189973564987621829e-01,-6.672007314218463270e-01
1.998499999999999943e+02,-6.423247174994280162e-02,1.556478596575625595e-01,9.818386238738675331e+00,-4.898207163674675457e-02,-2.513545793653459634e-02,7.558799951149872687e-01
1.998600000000000136e+02,1.178986740634633823e-01,2.911770197221441592e-02,9.863812299619727497e+00,3.366912404696363603e-02,-2.940448689951539740e-01,-7.012432976191228517e-01
1.998700000000000045e+02,1.331394935515058664e-01,5.606540615615757117e-02,9.924764055539945673e+00,2.753598892929212671e-01,-1.309038217833014273e-01,1.163053619937223504e-01
1.998799999999999955e+02,5.015982477225653519e-02,-3.666436986055886596e-03,9.740584834721571994e+00,6.571887775420197364e-02,-1.046636657647997543e-01,-2.057562120028031682e-01
1.998899999999999864e+02,-8.597694162442279589e-03,7.594250245525253906e-02,9.859881338876988366e+00,-1.150018688802815908e-01,-1.837844277893903033e-01,-5.286306884279486917e-01
1.999000000000000057e+02,5.594272545655826212e-02,3.550923519945396734e-03,9.841048681869850157e+00,-7.208192808221340619e-02,1.461229941389754483e-01,2.096858308750595978e-01
1.999099999999999966e+02,-1.625685854598649394e-01,5.939476377466755552e-02,9.850935825347116648e+00,3.790606345717702497e-01,5.383258042015703210e-02,1.993298219614740630e+00
1.999199999999999875e+02,1.088633900991554659e-01,-3.310709029211898052e-02,9.799689408627024534e+00,-1.205661026651476675e-01,4.030674374603229748e-02,3.690515390648331007e+00
1.999300000000000068e+02,-8.491217032005768384e-02,7.305318282955261533e-02,9.861710496264702641e+00,-6.489051277168878147e-03,1.108918157655801179e-01,4.670892774747525067e+00
1.999399999999999977e+02,-2.785981935135685428e-02,2.028644702559047608e-01,9.999328891894704086e+00,-1.984756191112317381e-01,1.598584211235553887e-01,7.078715622243411332e+00
1.999499999999999886e+02,1.317554870565874336e-01,1.401113000054657609e-01,9.827227017659151187e+00,-3.847246187902338965e-01,-1.987571693515787288e-02,8.220125698113214696e+00
1.999600000000000080e+02,1.097562250426670771e-01,1.116552458367825879e-01,9.793463579035877942e+00,-9.585195054337652953e-02,-2.759794849084961643e-01,9.321874878818887211e+00
1.999699999999999989e+02,-1.621127717846248539e-01,-1.734735532371177169e-01,9.787412705063744056e+00,-1.043715378200689020e-01,-1.421285670673245460e-01,1.039495017215541672e+01
1.999799999999999898e+02,-9.473285223137352384e-02,1.716992821648777590e-01,9.831576461002798695e+00,1.389347646322458898e-02,-2.216011280564210983e-01,1.270929145283659345e+01
1.999900000000000091e+02,6.401133507918124743e-02,1.412745574988408248e-01,9.799735807527937936e+00,-3.507302954774595971e-01,-1.091110446757705826e-01,1.454054216926171073e+01
