t,ax,ay,az,gx,gy,gz
2.640000000000000000e+02,8.998643972692572934e-03,3.099352166476676551e-01,9.880947632671926328e+00,-4.110649712552892909e-01,-3.485552394950343080e-01,1.413700526606306695e+01
2.640099999999999909e+02,2.085670953024382213e-01,1.335991911324777293e-01,9.947263153224950472e+00,-5.264827910844480097e-02,-4.190731617906709450e-01,1.497213273518802445e+01
2.640199999999999818e+02,-4.476234655262883999e-02,1.669886607870148254e-01,9.847652857570180274e+00,-9.637585595886805079e-02,3.667789776139463442e-01,1.470212043680325742e+01
2.640299999999999727e+02,4.255791155789617058e-02,4.044214825767708521e-02,9.680360769679076327e+00,1.527420969483908042e-01,2.858344105405761781e-01,1.499792543110322285e+01
2.640400000000000205e+02,-1.231408782839302357e-01,1.780257761287417917e-01,9.824765355686404078e+00,-1.898536873521319834e-02,-1.007364908798445147e-01,1.500142843223262368e+01
2.640500000000000114e+02,-4.332480997380162152e-02,8.815719498044367886e-02,9.933123540229988890e+00,5.011542599156814520e-02,2.295759881579480521e-01,1.509780644185135401e+01
2.640600000000000023e+02,1.037509052437578100e-01,3.042238044507147854e-01,9.851019005135126960e+00,1.413459496846765362e-01,1.293832151529553109e-01,1.490366067628123403e+01
2.640699999999999932e+02,1.178818973182058638e-01,4.210881018404006859e-01,9.827079274318604618e+00,-1.284969542049334001e-01,-2.217036372159792990e-01,1.601949935299079542e+01
2.640799999999999841e+02,1.841313027717352557e-01,1.665065722832940187e-01,9.791072802793481245e+00,1.313866020234120968e-01,-1.284006203737234342e-01,1.577139492545451382e+01
2.640899999999999750e+02,4.450601859327594362e-02,2.143834994962282858e-01,9.928684862356199403e+00,-6.653776094763480531e-02,1.672267209665227738e-01,1.512225114859192487e+01
2.641000000000000227e+02,1.235760881939056283e-01,1.358947798431198173e-01,9.711030636805944027e+00,3.345707716195425174e-01,2.242058587117983642e-02,1.365809627310459717e+01
2.641100000000000136e+02,6.238873312555733019e-02,1.786631042662053803e-01,9.698234903045658939e+00,-1.345910685684469088e-01,2.069747083988582315e-01,1.468944127579217707e+01
2.641200000000000045e+02,-4.130271657226591842e-02,1.075386165312639114e-01,9.891621039702913620e+00,2.823161600704484145e-02,1.483182464224324926e-01,1.444250400702352266e+01
2.641299999999999955e+02,-1.514082029236090976e-01,1.977988144851722807e-01,9.872637394181243309e+00,-2.310131011182747496e-01,-4.988239841774178007e-02,1.466583363819415986e+01
2.641399999999999864e+02,-2.314638325189534440e-02,2.068471319060555258e-01,9.945513817697742454e+00,-2.369432027514402073e-01,-3.964196055796422868e-01,1.485208775654907498e+01
2.641499999999999773e+02,-1.145291020209936034e-01,1.965461473886622179e-01,9.661613529019458468e+00,-1.702288440637147182e-01,2.280231917596426128e-01,1.622902364629387151e+01
2.641600000000000250e+02,1.054594064287819322e-01,2.413305078997056707e-01,9.876166876016704066e+00,1.285933549195732439e-01,5.660210550899627546e-02,1.493829650804965858e+01
2.641700000000000159e+02,1.111351866993311593e-01,1.302297871492001102e-01,9.857009925404703665e+00,5.653082002843817788e-02,5.890724650875602819e-01,1.450907583401948386e+01
2.641800000000000068e+02,-1.015525534625436876e-01,4.356508987162046598e-01,9.902688482157266492e+00,1.714622406236299412e-01,-1.696302305318599657e-01,1.549921381947030774e+01
2.641899999999999977e+02,1.112145685436544684e-01,1.014152214770915189e-01,9.845854557077847957e+00,6.000427913468214108e-02,1.938687305583977616e-01,1.371853211847472309e+01
2.641999999999999886e+02,-1.180304756637228503e-01,1.003697524009940639e-01,9.907663168759013317e+00,3.001879849479065498e-01,5.774495650760610443e-01,1.516195224463606195e+01
2.642099999999999795e+02,1.444628446630490393e-01,-8.491458624798162158e-02,9.702671874989864165e+00,-2.267229822047442667e-01,-3.084028087720213085e-01,1.432879924716359277e+01
2.642200000000000273e+02,-1.616634345188338803e-02,2.425511981704342457e-01,9.879905919672305359e+00,5.415014937362390424e-02,-4.415551566947740342e-02,1.592830042477186758e+01
2.642300000000000182e+02,4.587655211699281227e-02,-1.193562250003240288e-01,9.794026505683641304e+00,3.658723277485655401e-01,1.491816039689681517e-01,1.441255606383522014e+01
2.642400000000000091e+02,1.449358971683474273e-01,1.324977034277931842e-01,9.876735190076162851e+00,8.135311495915815982e-02,2.000962674010915154e-01,1.506955512340274694e+01
2.642500000000000000e+02,5.968937035016041309e-02,9.145741727228136331e-02,9.744690093436851441e+00,1.403783816472138068e-01,1.189278891245457576e-01,1.432882992052304161e+01
2.642599999999999909e+02,-1.335896669003642026e-02,2.279761785458556123e-02,9.829819945736200992e+00,4.139733145781980261e-01,-2.047619882093762167e-01,1.496606742860100425e+01
2.642699999999999818e+02,8.746674972771029122e-02,1.730698606323810007e-01,9.856893872384382860e+00,-3.264616314932974883e-01,-1.312799512706221694e-01,1.468595064136484396e+01
2.642799999999999727e+02,-9.674611216016799908e-02,3.433862947344635819e-01,9.840369631101831160e+00,3.873581168308172229e-01,5.470412964613160199e-03,1.562933191695796076e+01
2.642900000000000205e+02,-1.928994053015830046e-01,2.396626397756934090e-01,9.832729542042805804e+00,1.425986406355549685e-01,-2.738680212437827333e-01,1.486801116863864003e+01
2.643000000000000114e+02,1.146027714309241774e-01,9.037407013934986577e-02,9.736047564648266928e+00,-1.197785093119180799e-01,-2.266432147872134151e-01,1.431291168328071350e+01
2.643100000000000023e+02,-1.312649255290208039e-01,3.656810584861751590e-01,9.772486064019838992e+00,2.729038188168460555e-01,-1.882679971711768430e-01,1.372020544313928880e+01
2.643199999999999932e+02,9.218503704288300016e-02,9.338229492335053950e-02,9.607614428689027264e+00,-1.549627503650480853e-01,-6.464954273696886522e-02,1.496820476519972765e+01
2.643299999999999841e+02,1.412327624708662258e-02,2.760258543378848461e-01,9.792455236644725503e+00,1.878432183256001364e-01,-1.705993655285748256e-01,1.546724395966501042e+01
2.643399999999999750e+02,-1.449723225802268360e-03,-7.098734753011315401e-03,9.834673717091471090e+00,-2.973738708412311804e-01,1.211624399143073072e-01,1.505507660756875410e+01
2.643500000000000227e+02,-9.450074164480402883e-02,1.434396953219453097e-01,9.812752864062179725e+00,-2.818923868951944134e-01,2.101485265064303443e-01,1.446381180328864957e+01
2.643600000000000136e+02,-4.502868471011738094e-02,4.780076365772642499e-02,9.706110479381049316e+00,7.784300365888891307e-04,2.094331482241577336e-01,1.486310098497831689e+01
2.643700000000000045e+02,1.360407332085404207e-03,3.744131602322127716e-01,9.904837177551581107e+00,7.662227940155336148e-02,-2.837274272907182593e-01,1.489968034533841568e+01
2.643799999999999955e+02,1.985730116742467910e-02,9.743741782966329479e-02,9.849556418629173749e+00,-1.091355420633863815e-01,-2.684314674505831055e-01,1.571056456415335667e+01
2.643899999999999864e+02,-9.030483767359115399e-02,6.456793896917834008e-02,9.819383969992298233e+00,-2.617648715817956773e-01,7.283603998082170683e-02,1.433622438071933125e+01
2.643999999999999773e+02,7.436220817737630717e-02,2.131808449472040456e-01,9.748053051326062146e+00,-2.735438340566129223e-01,-1.058301501963237606e-01,1.393671414435865152e+01
2.644100000000000250e+02,8.071746823125959536e-02,1.417030656403815980e-01,9.726815488324133341e+00,-5.114743693695444904e-01,-3.058523821639989593e-01,1.503863762620858857e+01
2.644200000000000159e+02,4.838862986488159934e-02,3.813620038270500445e-01,9.879080593573220881e+00,2.839863411223687018e-01,7.638255793717180220e-02,1.507847894002364697e+01
2.644300000000000068e+02,-4.386801086127792293e-02,1.975431835194689789e-01,9.896190108791595108e+00,-6.087449459520919565e-02,-2.775168844126996159e-01,1.535539051320609261e+01
2.644399999999999977e+02,8.594644152515257263e-02,1.732026847275960346e-01,9.751636979160743124e+00,2.284452959791787030e-01,-2.468172114920466065e-01,1.440861875304364226e+01
2.644499999999999886e+02,6.210594103073605043e-02,2.387087073049967145e-01,9.638675422098497592e+00,-3.485662401960385459e-01,-2.711041818790578817e-01,1.482488756865223145e+01
2.644599999999999795e+02,-1.954132574293075963e-01,1.444866368440120563e-01,9.847099396915334424e+00,-3.609343392560407371e-01,7.830106699205513499e-02,1.523035089368047323e+01
2.644700000000000273e+02,2.113170294255441173e-02,1.904640642651256321e-01,1.002585349474273357e+01,-4.601571466270695798e-01,-3.739695509179789545e-01,1.540093110698682999e+01
2.644800000000000182e+02,1.933156494007080561e-01,8.291004686880111552e-02,9.717296580093741198e+00,-3.323144195558805358e-02,-3.960740266290259659e-01,1.518168515908033456e+01
2.644900000000000091e+02,9.719250936635612237e-02,1.044811804182983750e-01,9.799824854582325884e+00,8.435909543508812725e-02,3.535585279929474162e-02,1.539655489168728231e+01
2.645000000000000000e+02,1.153454640879411075e-01,7.528340390682863870e-02,9.826754656664913767e+00,-6.228539948682534910e-02,1.252716734431015000e-01,1.577687153425588029e+01
2.645099999999999909e+02,-7.011222117290825950e-02,2.056941633659584712e-01,9.807785853194921799e+00,-1.919641787309361303e-01,6.953043830590208141e-02,1.530519112297503348e+01
2.645199999999999818e+02,1.256412361475195416e-02,1.001443005232989791e-01,9.938999478510471164e+00,4.052766784681283152e-02,-3.467203192738199657e-01,1.477392313517577804e+01
2.645299999999999727e+02,-1.831360995172441261e-02,2.446399118943098083e-01,9.704894912777431770e+00,-4.664384454793442381e-02,1.368007126617060143e-01,1.441186688932968707e+01
2.645400000000000205e+02,-2.235150111467181010e-04,8.011113910897564583e-02,9.955351226740827286e+00,7.125633985582539853e-02,-5.021094698662691841e-02,1.476374478888676123e+01
2.645500000000000114e+02,-5.142993078442597427e-02,6.996950042718072527e-02,9.812862662392339175e+00,-3.028440593962396510e-01,-4.660816551782138162e-01,1.526093586686075199e+01
2.645600000000000023e+02,-1.235289673390835702e-01,1.905211578605602307e-01,9.855118044897352547e+00,-5.064531836781793750e-03,-1.002243663265719731e-01,1.436869075898733428e+01
2.645699999999999932e+02,6.433404081612315202e-03,1.805215503194166626e-01,9.825188743243403522e+00,8.955372990346689710e-02,5.019593940794744857e-02,1.483992772824214512e+01
2.645799999999999841e+02,-7.806376224372595096e-02,2.523612993052860576e-01,9.799725376725536563e+00,5.531980090311510584e-02,2.549784222863519800e-01,1.477934437065833251e+01
2.645899999999999750e+02,5.860237440551360755e-02,4.843197123679325589e-02,9.759453113991844120e+00,-1.382073124025447186e-02,-3.254348493174635815e-02,1.491307137926661852e+01
2.646000000000000227e+02,-3.068761938410095869e-03,1.282162904379960389e-02,9.787189145690039282e+00,-6.208793309317146847e-02,1.464774321099685250e-01,1.544713052280675925e+01
2.646100000000000136e+02,-1.927195437258459321e-01,2.882797497358076111e-01,1.001289104203283031e+01,-8.601801508198855459e-03,1.317202826299594676e-01,1.474173365328227447e+01
2.646200000000000045e+02,1.381829363042835490e-01,3.123789281644229199e-02,9.926034803933008632e+00,1.570441356156859480e-01,-9.799175811325294694e-02,1.571569606589900836e+01
2.646299999999999955e+02,4.353203803530045213e-02,2.496443158713325949e-01,9.803553606139512766e+00,8.082121380565682189e-02,-3.388002451196827636e-01,1.483987632337590057e+01
2.646399999999999864e+02,-4.579632283579628677e-02,-6.849619904382928115e-02,9.885191460877146952e+00,-8.271285201758797612e-02,-1.700019752150847344e-02,1.518095315638503529e+01
2.646499999999999773e+02,-3.363864564022467363e-02,2.234639931884624120e-01,9.876474287211651770e+00,-1.079051399563352442e-01,1.873464424078911950e-01,1.630160137762185002e+01
2.646600000000000250e+02,-1.228120340074190936e-01,1.655438696756998118e-01,9.605383403973872802e+00,1.053690640430608866e-01,2.071428269572038183e-01,1.468374563278845280e+01
2.646700000000000159e+02,-6.241784915837312459e-03,2.071427868524204907e-01,9.762410184299303850e+00,-4.164637620132788376e-02,1.734031389002308465e-01,1.474886092362199719e+01
2.646800000000000068e+02,6.811801333529522717e-02,2.434060698989629623e-01,9.666615799912781526e+00,3.576879216925321070e-01,-6.206866948925622574e-02,1.546496971619175298e+01
2.646899999999999977e+02,1.744917462774713546e-01,2.613953354348754754e-01,9.813041623593042218e+00,-2.846753533578870454e-02,-9.181692907865970921e-02,1.421248757776181826e+01
2.646999999999999886e+02,-8.867378366285051314e-03,2.131674463211314097e-01,9.930055972651256724e+00,-1.639764117575623348e-01,1.339272850659688208e-01,1.502067113264527087e+01
2.647099999999999795e+02,4.897327319802270533e-03,2.501643614162127882e-01,9.869242548004846682e+00,2.116480479105541379e-01,1.029916253934735626e-01,1.422450876379700091e+01
2.647200000000000273e+02,1.192519980039920685e-01,2.789689174470121324e-01,9.826190719627595271e+00,1.841154042711752037e-01,-5.526579731761988024e-01,1.519068776269275389e+01
2.647300000000000182e+02,-1.158814525087421554e-01,2.940988299673217843e-01,9.740029700973213522e+00,-2.057604429707770091e-02,-7.128626513263941478e-02,1.518769625433657033e+01
2.647400000000000091e+02,1.456161387651772401e-02,2.185251124096019570e-01,9.650347307415644948e+00,6.660353665545244717e-02,6.286712902485368237e-02,1.571249865045493976e+01
2.647500000000000000e+02,-7.562534811269974733e-02,7.194216173489785537e-02,9.861048605268686984e+00,2.856830974992149996e-01,1.190533608408233940e-01,1.398364967230649114e+01
2.647599999999999909e+02,1.311622012091869308e-02,1.415384757529918047e-01,9.809991758260601102e+00,6.764447433377152041e-02,-2.246012799791558823e-01,1.569717160221709484e+01
2.647699999999999818e+02,9.367472394406718694e-02,1.567444144784866100e-01,9.829309173385654574e+00,-1.281673958465933197e-02,9.041068240920438481e-02,1.557680724442477427e+01
2.647799999999999727e+02,-1.652167153423082235e-01,9.868794109230384637e-02,9.799403568333639569e+00,1.485008343314669355e-01,-2.983275008771423820e-01,1.551907701986610100e+01
2.647900000000000205e+02,1.111162474236619124e-01,5.203515417933213261e-02,9.823278296027703860e+00,2.977026275910029871e-02,-8.125260046244939249e-02,1.519056682684163029e+01
