t,ax,ay,az,gx,gy,gz
2.071999999999999886e+02,-3.466525739117051752e-02,-1.566445818369386345e-01,9.826302104658173775e+00,-2.308204795426256062e-01,8.100743048890766962e-02,-6.539046393568874460e-02
2.072100000000000080e+02,1.373647571700929715e-01,1.945313232357759325e-02,9.811327776566649561e+00,-3.928458615935773168e-02,-2.089599231515207323e-02,-6.132491493210988631e-01
2.072199999999999989e+02,-6.393787834823357052e-02,-2.039943106464818801e-01,9.744161902466203173e+00,-8.497074397023487990e-02,-1.161468798055123042e-01,-6.830703427920103987e-01
2.072299999999999898e+02,8.474042084925388629e-02,-1.500797656492415012e-02,9.633598719745215533e+00,-2.315201415850595967e-01,-5.270635953671237717e-02,1.299710025720120232e-01
2.072400000000000091e+02,-8.599049331774803739e-02,8.583412108365973126e-02,9.874327011349157246e+00,1.299716625372114576e-01,5.009239672314858005e-02,2.952831797795872903e-01
2.072500000000000000e+02,-8.418218031902240106e-02,-1.085244118375908520e-02,9.716035283830493086e+00,-9.627472046040491671e-02,4.124203432182734635e-02,6.387446109036879482e-01
2.072599999999999909e+02,1.184284597032562725e-01,7.805460232082658822e-02,9.630274457004777133e+00,-8.385841121245157792e-02,-7.102822626182278554e-02,-5.169933669222583766e-02
2.072700000000000102e+02,4.366658501624984257e-02,-5.023741234378729242e-02,9.965729156715706694e+00,-4.033406095826163607e-01,-2.818996527445430944e-01,1.080477057952549780e+00
2.072800000000000011e+02,-2.159641765678438630e-01,2.584346921469219405e-01,9.915079656570894073e+00,1.632338217332951480e-01,1.342360686937979775e-01,-6.961406151785920482e-01
2.072899999999999920e+02,-8.538150667118378501e-02,1.100891744254482579e-01,9.641254678125912747e+00,-1.842265715214179075e-02,-5.524853505572918655e-02,-1.211692348309219014e-01
2.073000000000000114e+02,-2.570854895033122811e-01,2.094648963363412997e-02,1.005862264745782753e+01,3.125263718722510742e-01,2.007136716232089668e-01,1.129576290475976380e-01
2.073100000000000023e+02,-3.755282598020564383e-02,1.711927645220259753e-01,9.655221995087883258e+00,1.462195402745865291e-01,-2.239249798829011651e-01,1.029026434025033937e-01
2.073199999999999932e+02,-2.734258196126436793e-02,1.394562066129433620e-01,9.656032939839043649e+00,-4.917411401611522515e-02,-2.589827282872826930e-01,-1.904152446803779042e-01
2.073300000000000125e+02,-4.740411404377241344e-02,-5.374048122326788995e-02,9.623189343089457282e+00,-2.004398831860253541e-02,2.232927408123416280e-01,-4.617328402989911984e-01
2.073400000000000034e+02,1.206492618471249750e-01,5.007878389809278241e-02,9.764536733429668658e+00,-1.019140099860152970e-01,-3.131802650465786986e-01,-6.679545017453217826e-01
2.073499999999999943e+02,4.130540317861380872e-02,-2.959559134877735170e-02,9.935678591906984991e+00,-8.072667370137232012e-02,-2.463207216713363401e-01,-5.532809745993713113e-01
2.073600000000000136e+02,2.465851178833856627e-01,9.186290970204830098e-02,9.642934364153189719e+00,4.272919532763588268e-01,-2.423896642031899418e-01,9.130507577370661210e-02
2.073700000000000045e+02,5.341188119385570365e-02,1.571870825305724806e-01,9.740302466930163661e+00,-3.489101555927901499e-01,-2.828057316934728393e-01,1.630860121420738329e+00
2.073799999999999955e+02,5.525232328664614334e-02,-1.479872678974090972e-01,9.845383775458911302e+00,-7.485938931522946593e-02,2.114510793551737378e-01,-8.389995432984427570e-02
2.073899999999999864e+02,2.719941245413601272e-02,1.191157666783802284e-02,9.755574276781688425e+00,-2.448616813765048250e-01,-2.033698518701241853e-01,1.609979534709596594e-01
2.074000000000000057e+02,-2.690133288482079651e-02,1.462448115404864912e-01,9.810498228279842081e+00,-3.638407348041614586e-01,-2.022506891896084236e-01,-8.583388181546361406e-02
2.074099999999999966e+02,-6.496488659795991716e-02,7.604059801152662779e-02,9.905096376099734812e+00,3.348573514209800955e-02,-1.787330301832373500e-02,2.193326563924814510e-01
2.074199999999999875e+02,-2.349834820440625804e-02,4.275418764577749303e-02,9.750387916928959342e+00,-4.721882924653349189e-02,4.703833548280947699e-03,-8.908455646082636958e-01
2.074300000000000068e+02,-1.890782078648715198e-02,1.075118909086420910e-01,9.713231910894842613e+00,-8.244515273760596660e-03,2.205572934161945386e-01,-6.488843845716264491e-01
2.074399999999999977e+02,-9.420858348949422145e-03,-1.337779732645431041e-01,9.851253289697153193e+00,3.358565539991946736e-01,-5.146065934819119003e-02,-5.616884537962302248e-01
2.074499999999999886e+02,6.359871413654583083e-02,5.682154170183179032e-02,9.811785245872137295e+00,-2.505815428396988565e-01,-8.597672368029873891e-02,6.323515548318303647e-01
2.074600000000000080e+02,3.000735046672947312e-02,1.233604144638954098e-01,9.885061176741173128e+00,5.278695423316964730e-01,-1.763162632488075587e-01,-4.080384495294406832e-01
2.074699999999999989e+02,-5.169282608621683650e-02,5.694397021003783088e-02,9.900398390642125790e+00,-1.872980628503389533e-01,-3.716857879470699677e-01,2.172351945555571831e-02
2.074799999999999898e+02,-7.381440688390759897e-02,-1.219408804241101790e-01,9.614323314156496991e+00,-2.424396951760977026e-01,7.328871685002294467e-02,-2.954406516448386255e-01
2.074900000000000091e+02,2.242782810907092972e-02,-3.768360155441896620e-02,9.729773471879701319e+00,-6.019394642674186224e-02,3.877973619471920125e-02,7.309933916928254005e-01
2.075000000000000000e+02,-9.267390378003573237e-02,1.103733691098503266e-03,9.755266771749630195e+00,1.210202398946925578e-01,-3.081627815613105503e-01,5.311394684878715244e-01
2.075099999999999909e+02,-4.268805676707039531e-02,-8.191783129125673746e-02,9.768283544248419048e+00,-7.806637903659398303e-02,-9.415919281897193460e-02,3.921077128243118382e-01
2.075200000000000102e+02,-5.313454903849577221e-02,-9.013300444938150691e-02,9.982247301280064988e+00,-6.159544386799548077e-02,-3.826755343727522574e-01,5.445652241747747091e-01
2.075300000000000011e+02,2.426046783981943289e-01,4.912168333550969573e-02,9.531358970850016377e+00,1.486280767318141904e-01,-2.013761217532536174e-01,2.790731068576316476e-01
2.075399999999999920e+02,-1.274179015783000746e-01,1.647425764472259524e-01,9.760750833430805073e+00,2.701857845141187320e-01,-1.482030418029316177e-01,-1.328678072908046348e-01
2.075500000000000114e+02,-7.926367439472987997e-02,-1.885340120696359922e-01,9.704284114788940485e+00,2.101925262186397081e-01,1.120002503554983209e-01,3.206617395599370424e-01
2.075600000000000023e+02,-5.555767668782052304e-02,-4.830085996350966249e-02,9.911937494482510047e+00,4.936500664123067428e-01,2.822081844165155173e-01,3.101909675394333085e-02
2.075699999999999932e+02,-4.519678481932751929e-02,-7.223645511907500483e-02,9.722431102052881968e+00,1.171543513297222949e-01,-6.753061260298447166e-02,-1.149354005405702761e+00
2.075800000000000125e+02,9.998089836291046417e-02,1.501046979240648616e-01,9.963314254277037207e+00,2.747863765811110470e-01,-6.161986294128707353e-02,3.395568396540223910e-01
2.075900000000000034e+02,-2.543879071029957195e-02,7.231834321562491397e-02,9.803537079688240397e+00,-1.875411858944373289e-01,7.766308231911506210e-02,2.460974993995516946e-01
2.075999999999999943e+02,-1.324197060741151843e-01,1.391521742434978781e-01,9.782637544922932804e+00,-7.775321065335855097e-02,7.130700002564903384e-02,6.682308215890960801e-01
2.076100000000000136e+02,1.430914080997724713e-01,8.858027789066869051e-02,9.749302835534379597e+00,7.108522818470366933e-02,-4.443393250866423116e-01,-6.373830925908789691e-02
2.076200000000000045e+02,2.636390008411290328e-02,1.181241146533905106e-01,9.771932757459723007e+00,-1.253478343732592204e-01,5.323183851571278158e-02,-4.526170554949823233e-01
2.076299999999999955e+02,4.205235612836211861e-02,2.866795981288964429e-02,9.625532231898773716e+00,9.865900514916155217e-02,-1.264111503955905880e-02,3.496396888095477107e-01
2.076399999999999864e+02,6.508368368858828690e-02,4.758455057088535611e-02,9.659214392378435932e+00,-1.235784339238428925e-01,-4.005470226253768362e-02,2.536629722490377770e-01
2.076500000000000057e+02,-1.232041266760831588e-01,5.248173420036166686e-02,9.748792837458164939e+00,2.080574097367655639e-01,-1.403585403636280204e-02,5.115142264679913842e-01
2.076599999999999966e+02,-6.880933000533404368e-04,3.325438663532088654e-03,9.883046920337728025e+00,8.395099083912875571e-02,-9.102410446353249862e-02,3.466426542571133806e-01
2.076699999999999875e+02,8.212477942767271166e-02,5.078243665951041354e-04,9.910214597982784923e+00,-1.336043878272561436e-01,-2.912082852727255200e-01,-1.926244064881278695e-01
2.076800000000000068e+02,-6.402697053364846125e-02,4.749145658256874458e-02,9.635481767366425032e+00,4.758284747034917661e-01,1.341485129234814833e-01,1.789182146259202244e-01
2.076899999999999977e+02,3.066606401189893652e-02,4.495669284440095836e-02,9.904476510393909194e+00,-3.293600333528663993e-01,4.244686050562576085e-01,-3.121708568772224926e-02
2.076999999999999886e+02,5.435185493640222465e-02,2.113275821528003487e-02,9.833051593836007243e+00,-7.143104486418147547e-02,-3.207648010808464845e-01,-6.794335418998047604e-01
2.077100000000000080e+02,-1.459956084647709706e-01,1.807318066221151251e-02,9.874901593866345806e+00,1.925909010411934741e-01,-4.012852438491169571e-01,3.813387394826574517e-01
2.077199999999999989e+02,-1.032446589776108009e-01,7.118759280843650616e-02,9.798173256558598609e+00,-1.426620354951849412e-01,-3.438662935963510137e-02,-2.038939933877842170e-01
2.077299999999999898e+02,-2.284776635746547380e-01,-1.275805247473063044e-02,9.907788062294416775e+00,-3.080532484064488208e-01,-5.049521509141464970e-02,4.697713726361535391e-02
2.077400000000000091e+02,2.267338018512025238e-02,-1.220720097078261679e-01,9.735172050043216174e+00,-2.530361586088266113e-01,1.197733198249824049e-01,-2.294939497462931410e-01
2.077500000000000000e+02,1.884969712415316412e-01,2.058474539507790246e-02,9.794450999827780890e+00,1.215938256595093386e-01,-1.595562347888047211e-02,-2.204681884477877329e-01
2.077599999999999909e+02,-6.921831005163138484e-02,-8.980593499208708308e-02,9.699608688415620961e+00,5.845718845376051548e-02,2.824862773346038108e-02,2.635605759267363804e-02
2.077700000000000102e+02,-1.926874542144506666e-02,1.038656134197497583e-01,9.652742194710484114e+00,4.502405713457301173e-02,2.217153117072475643e-01,-4.586062110950565179e-02
2.077800000000000011e+02,1.013323454919717731e-01,-5.869629228824709000e-02,9.474029531640423940e+00,4.326225667092392646e-02,1.599034082719902328e-01,-2.766403772774890246e-01
2.077899999999999920e+02,2.658756455315676795e-02,-5.003618785291163301e-02,9.731835664539360664e+00,1.531191498873915036e-01,1.345218074988956125e-01,1.073384425586516366e+00
2.078000000000000114e+02,-9.736901794418419132e-02,4.148997610523225132e-02,9.811480576765863049e+00,-3.568547169478650249e-01,-1.221700323627918500e-01,-1.493205739170974933e-01
2.078100000000000023e+02,1.526307586900494950e-01,-1.169625645258946410e-03,9.894642056668331520e+00,4.078118480182934547e-01,1.848661499121498075e-01,7.131072785963281646e-01
2.078199999999999932e+02,1.973242422338637725e-02,1.182404805784546542e-01,9.935292408814699883e+00,-2.283237478489141825e-01,1.034939601406370119e-01,-7.306101757583459422e-02
2.078300000000000125e+02,-2.322156326447410990e-02,-2.091319985812380156e-02,1.004847479564492652e+01,-6.773506030584935944e-02,-3.087046368525836124e-02,5.765842704026331866e-02
2.078400000000000034e+02,-1.494425777408331379e-02,-2.941964063004636268e-02,9.763154487753361366e+00,1.774559757408505911e-01,-1.638270501824106717e-01,-1.005117392297325551e-01
2.078499999999999943e+02,5.908688904778763851e-02,-7.632223030568001387e-02,9.746747045331847659e+00,-6.963728510596077503e-02,1.236880744494268103e-01,4.131414892771029246e-01
2.078600000000000136e+02,-6.133865042135246137e-02,-1.185319697677740258e-01,1.016536206368107464e+01,-6.601566967371168965e-03,4.489384880238517228e-02,-5.650036376240525904e-01
2.078700000000000045e+02,1.571620790488206243e-01,-5.263702853205327881e-02,9.815724832123578381e+00,-3.094976418650648986e-01,2.631728479134194387e-01,5.062643558841646574e-02
2.078799999999999955e+02,1.258633340503174380e-01,4.114694565105408985e-02,9.705086213096508985e+00,-2.598571729056399771e-01,1.982596286803392505e-01,5.563645237797467669e-01
2.078899999999999864e+02,8.479777436482074417e-04,1.283561227843259822e-01,9.731184530257513288e+00,-3.299085693187948642e-01,1.681068435189188026e-01,6.766606710061749685e-02
2.079000000000000057e+02,6.160938637731035866e-03,8.510763991040251608e-02,9.743286531808257322e+00,3.058084751310133007e-02,-8.832324594129586925e-02,-1.129941113130152663e+00
2.079099999999999966e+02,-8.460417197294041458e-02,-4.037806025078453931e-02,9.876362482864903924e+00,5.776971928899613667e-02,-2.928066425481580873e-02,1.969733827358267186e+00
2.079199999999999875e+02,-6.373394013771814526e-02,4.955514904392682718e-02,9.786384916964193437e+00,4.787324133673690613e-02,-2.403140991616297129e-01,2.318119190881870573e+00
2.079300000000000068e+02,-1.135396340826220762e-01,5.280607762464999133e-02,9.777635821045743469e+00,4.938610045731398231e-03,-8.266957685965803382e-02,4.167823885117727833e+00
2.079399999999999977e+02,-2.040745327888579541e-02,1.825354093927534227e-01,9.907574239330211086e+00,1.201845742554212004e-01,4.139053163380149170e-01,5.751428071435551459e+00
2.079499999999999886e+02,6.234351995601800610e-03,2.148802932425560308e-01,9.779253895648022166e+00,2.751372704330932173e-01,3.072811996488741260e-01,8.124365561667460156e+00
2.079600000000000080e+02,-1.590077740124408168e-01,-9.467627266543934828e-02,9.775864486245204432e+00,-5.668235031022359482e-01,-3.260247918479440288e-01,9.889207975128947226e+00
2.079699999999999989e+02,6.889118217969987523e-02,2.560004603841223858e-01,9.726997266696463029e+00,2.954673815758391830e-01,-3.123635638356461741e-01,9.785528626863325030e+00
2.079799999999999898e+02,-8.708827208669946141e-02,-2.362121091846808296e-02,9.915960796231329866e+00,-1.138692717321105989e-02,-1.316547671539850528e-01,1.226059186679930946e+01
2.079900000000000091e+02,4.118117237279797505e-02,1.773113325086872472e-01,9.905599594011313513e+00,2.325226698844686801e-01,-2.831851576509642476e-01,1.378604440269488052e+01
