t,ax,ay,az,gx,gy,gz
2.088000000000000114e+02,-1.970675026104637406e-02,2.979264624440086662e-01,9.775806021206282281e+00,2.012336606417900464e-01,-9.376364328783208524e-02,1.514682624345694784e+01
2.088100000000000023e+02,-8.308059048487330400e-02,2.068621821634016866e-01,9.835993384542614848e+00,1.708381892381626854e-01,-2.733395708082526909e-02,1.542787465868577534e+01
2.088199999999999932e+02,3.045836730801560616e-02,1.892495891694869203e-01,9.806616911826143479e+00,-5.943412385397350839e-02,-4.076391043214531718e-01,1.461302812251260796e+01
2.088300000000000125e+02,-2.434227525539490317e-02,5.487373347708109084e-02,9.856100167021493164e+00,1.320687170860483650e-01,-2.594473724679711157e-01,1.552091372701422856e+01
2.088400000000000034e+02,3.598855665660685016e-02,3.562867941429821439e-01,9.837177750872175608e+00,2.198083222686725811e-03,-1.928586304160280207e-01,1.520576632942713147e+01
2.088499999999999943e+02,-9.852098786207613701e-02,3.388129040413700999e-02,9.972588346969029516e+00,-2.769891913774027992e-01,1.324147862499540362e-01,1.464735695119365211e+01
2.088600000000000136e+02,4.557276144960468317e-02,1.210074980258457611e-02,9.882339446342655265e+00,3.336492390474906505e-02,-3.966240859594263313e-01,1.482986259120741757e+01
2.088700000000000045e+02,1.689028924291139863e-02,1.196441838857747186e-01,9.927715277191236254e+00,-4.260423594684444315e-01,-2.095705062729185178e-02,1.574334243081114693e+01
2.088799999999999955e+02,1.368696179417853986e-02,2.259252326265756561e-01,9.737030272660588182e+00,-2.154654207683740774e-01,-2.299270269512962706e-01,1.435026889403552453e+01
2.088899999999999864e+02,3.893757998748603733e-02,1.266644577359997415e-01,9.880357784342024274e+00,-1.588834201821480718e-01,-4.849379892435797257e-01,1.501638936610426001e+01
2.089000000000000057e+02,-2.376008824036258960e-02,1.050391741904574960e-01,9.882320988648977789e+00,2.274886960698292715e-02,-8.985021242246089834e-02,1.457463635865406459e+01
2.089099999999999966e+02,3.806717366119594104e-01,8.443298773727116180e-02,9.703980613009582257e+00,3.394761513412907772e-01,-6.909574977455819333e-02,1.528736929399737399e+01
2.089199999999999875e+02,4.684457328788059483e-02,3.434374552549318560e-01,9.757548011734790805e+00,-4.366276298270436174e-01,-7.433128859763904472e-02,1.449023901683520243e+01
2.089300000000000068e+02,1.051119771203727626e-02,2.001935438660639999e-01,9.835522733090488856e+00,2.881884395773475216e-01,1.369859192535171910e-01,1.383956168887401716e+01
2.089399999999999977e+02,7.419742028318573879e-02,2.562740656047991505e-01,9.833879728240171758e+00,1.243956848499770812e-01,-1.156442521439756885e-02,1.527282942756636785e+01
2.089499999999999886e+02,-5.212596926497903294e-02,3.723884321864852631e-01,9.849168865713597398e+00,1.151794186787530871e-01,-1.002800845702480903e-01,1.520639102112997243e+01
2.089600000000000080e+02,-5.543706661827079579e-02,3.691819971205915207e-01,9.805835228968948769e+00,-1.326693500298972705e-01,-1.854486873663405806e-04,1.465723746768476410e+01
2.089699999999999989e+02,8.003686802923236365e-02,7.682695152084641210e-02,9.839964841736611234e+00,-3.328176097654926557e-02,1.233137160446746289e-02,1.521541457878534231e+01
2.089799999999999898e+02,8.891430275673704864e-02,1.916331343399360621e-01,9.787056824053339099e+00,-5.109873551199864417e-02,-1.645053488619531712e-01,1.555291901285844958e+01
2.089900000000000091e+02,1.191751125557998503e-01,2.454087639533011067e-01,9.811398704191054421e+00,2.933919846567737966e-01,-5.417035595816791643e-02,1.464919545456992722e+01
2.090000000000000000e+02,-1.425169061378422364e-01,1.775028955324395863e-01,9.898554183274907103e+00,2.428220176882853742e-01,1.989236092777331155e-01,1.490929944392772555e+01
2.090099999999999909e+02,-1.263890536164714688e-02,9.909090775654398608e-02,9.774405859846815758e+00,9.522731135297396454e-02,1.877821108715437559e-01,1.456119705632845829e+01
2.090200000000000102e+02,3.296308281952898406e-02,-9.998746885081935543e-02,9.898703008483101584e+00,-8.585048314710447270e-02,4.118498097038310324e-02,1.474492732500387326e+01
2.090300000000000011e+02,7.203144251744310333e-02,3.012502941479882068e-01,9.853972773293962817e+00,-2.131983617825156385e-01,-5.825720624681587911e-02,1.553411586835314750e+01
2.090399999999999920e+02,5.265829791630155521e-02,3.515073265026842364e-01,9.959055274843247929e+00,-2.116991726024236853e-01,3.163915724441643956e-02,1.489780123948071555e+01
2.090500000000000114e+02,-8.510776176758198808e-02,2.403333487891062825e-01,9.841088623889669762e+00,2.587691010141409120e-01,2.430398880979319776e-01,1.480148217007908684e+01
2.090600000000000023e+02,5.147568977638253274e-02,1.643015482047992248e-01,9.884750642200330617e+00,2.719173789561944998e-01,2.242250061248991233e-01,1.463120240226329649e+01
2.090699999999999932e+02,3.212354758944228894e-02,1.113896912091512231e-01,9.439635857237803407e+00,-1.462281779907407542e-01,6.356263849235359309e-02,1.499096321509504293e+01
2.090800000000000125e+02,3.185152887806779604e-02,1.796266835225471814e-01,9.705318333910286199e+00,1.207885778366757229e-01,7.440028860911040987e-02,1.569399996426943744e+01
2.090900000000000034e+02,-1.096441643941012539e-01,3.002486768682173790e-01,9.838541667233091204e+00,2.946129382725724555e-01,-1.842863106351493307e-01,1.431965208895507402e+01
2.090999999999999943e+02,-9.344656698352467317e-02,2.218181517062128294e-01,9.905522039207287577e+00,-3.516050136528359182e-01,-1.899383290111635036e-01,1.498230370944967937e+01
2.091100000000000136e+02,1.812230662212362953e-01,-5.098696030051552697e-02,9.848522133627241715e+00,-2.779624971796318955e-01,1.077098681603193137e-01,1.518764945765790131e+01
2.091200000000000045e+02,9.861125414364632635e-02,3.270185103738078025e-01,9.771351053861653924e+00,-8.580079745861833584e-02,1.852181973943162197e-01,1.533197653161231777e+01
2.091299999999999955e+02,-6.297005027733600623e-03,2.345173086699381404e-01,9.703149662906520589e+00,-4.186442465205617719e-02,5.047655323159260660e-02,1.606467896272992135e+01
2.091399999999999864e+02,-4.588815074265266240e-03,5.946400852772826262e-02,9.786566378732983296e+00,5.804408753755770090e-02,-2.619992903157016828e-01,1.550059158771106738e+01
2.091500000000000057e+02,2.222831914851334245e-01,2.258269453609894895e-01,9.862222542128083802e+00,-1.918785223707235865e-01,5.780372628657300949e-01,1.439638173150594724e+01
2.091599999999999966e+02,4.533351766186557476e-03,1.874581609504941404e-01,9.843112564744275872e+00,1.637480199507857503e-01,-2.394827900081438199e-01,1.511498625874898316e+01
2.091699999999999875e+02,-1.167900912329798355e-02,1.870923263168701722e-01,9.897975803477976342e+00,-2.734937130186108067e-01,-5.590729730480791665e-02,1.520978929440511074e+01
2.091800000000000068e+02,-7.934086510328179631e-02,6.586571942606231356e-02,9.796384497438186401e+00,1.997486195102366469e-01,-3.993332341572393140e-01,1.547220518438050085e+01
2.091899999999999977e+02,-2.336641978053724880e-02,1.405441091854858493e-01,9.823088873360061868e+00,1.378494803210832398e-01,-7.140491245923895336e-02,1.503065345396469965e+01
2.091999999999999886e+02,-1.682843695184047805e-01,5.474774845470181672e-03,9.657262715266549336e+00,-1.726906614060151890e-01,2.438808230227295371e-01,1.516671314185613895e+01
2.092100000000000080e+02,5.207929984500359044e-02,2.892676921907550436e-01,9.736871187695660623e+00,-2.172837632580606193e-01,-2.256184951848538012e-01,1.523718286615940265e+01
2.092199999999999989e+02,1.259258996843050649e-01,8.096513450434458803e-02,9.936151049140667268e+00,9.295817319159747905e-02,1.571847773866354436e-01,1.539995549259333529e+01
2.092299999999999898e+02,1.270398150637163937e-01,2.788898513068798213e-01,9.877283949851902278e+00,-2.951562203409997531e-01,-1.869842670380125055e-02,1.518208592591037132e+01
2.092400000000000091e+02,-7.024585323238860535e-02,2.281120667125069723e-01,9.909278789303451518e+00,-1.150879931673400441e-01,-2.760585564166292971e-01,1.464892024879790711e+01
2.092500000000000000e+02,-2.294687881634479842e-01,1.270632030889921604e-01,9.764375321051844026e+00,-3.713431602645799190e-01,-2.238784123795549766e-02,1.493309009468367066e+01
2.092599999999999909e+02,3.392747115045034040e-02,9.181126381664160563e-02,9.969291891907950287e+00,-2.045710199565114462e-01,-3.046466206153899403e-01,1.527696906256157128e+01
2.092700000000000102e+02,1.318706349714969805e-01,1.876077725844412236e-01,9.842560793597325386e+00,1.666350466179530865e-01,-2.277675782373775604e-01,1.476509589966373781e+01
2.092800000000000011e+02,-1.604138942207631036e-01,2.751617073873613428e-01,9.742027033525200608e+00,3.252939446267114065e-01,-2.651068579302681694e-01,1.546267661567500440e+01
2.092899999999999920e+02,-3.736046379095684516e-02,2.479575348926220668e-01,9.852321865495886399e+00,-1.031076934596367178e-01,9.775543969023378632e-02,1.472853117362870989e+01
2.093000000000000114e+02,3.574146202924100707e-02,2.231931115131660925e-01,9.887033493610021040e+00,-7.178932010690390608e-02,2.852270887275792366e-01,1.346946457102902883e+01
2.093100000000000023e+02,-8.410618540027395285e-02,1.503541430842002813e-01,9.864642339380027991e+00,-8.393511665183487486e-03,-2.391327830860896508e-01,1.536764647037685094e+01
2.093199999999999932e+02,-1.728157319602554864e-01,2.482860677211693734e-01,9.739613024646962103e+00,-2.039195453281380521e-01,1.297227189715329521e-01,1.498714856540432194e+01
2.093300000000000125e+02,-7.437129977866034636e-02,1.240400135731828390e-02,9.813256337659383988e+00,9.152025916158684771e-02,-4.919656133387520502e-02,1.464285206878350820e+01
2.093400000000000034e+02,-5.690853304803436541e-02,1.912845913896221162e-01,9.914437260840378130e+00,-1.980902903962827866e-01,9.737523542695177003e-02,1.447062007864828104e+01
2.093499999999999943e+02,-1.886161342770379390e-01,1.675455168562228758e-01,9.768794082935301049e+00,8.977495270793640902e-02,-1.564777185462946363e-01,1.449001079135587666e+01
2.093600000000000136e+02,1.071543970170632520e-01,4.431222972841694641e-02,9.822063789404687384e+00,2.566766607076339732e-02,1.592263068724073805e-01,1.448653123583701330e+01
2.093700000000000045e+02,1.553915415455506543e-01,1.317032386002808253e-01,9.707647071299158270e+00,2.614981370428967611e-01,-1.139767824312684641e-01,1.483681867194035497e+01
2.093799999999999955e+02,2.955686075302725764e-03,3.358928833887223075e-01,9.902429094280348565e+00,-1.282624682687194817e-01,-5.714571582243067882e-02,1.526988037673663356e+01
2.093899999999999864e+02,7.294871559066939959e-02,2.237684368896160625e-01,9.752760074305770743e+00,-7.052875442006351081e-02,1.364656502308759511e-01,1.440334153701843078e+01
2.094000000000000057e+02,-1.479189198580952158e-01,2.605760322014532004e-01,9.987686344063503086e+00,3.907643536738573259e-02,6.638881323914079535e-02,1.545141322552218988e+01
2.094099999999999966e+02,-1.415782866854496148e-02,1.220802913189309447e-01,9.895895710793059408e+00,-1.483852061840645054e-01,-4.877671899778873894e-03,1.470447738891616929e+01
2.094199999999999875e+02,-5.789045384003241312e-02,-1.289776698625483276e-03,9.801673485222803350e+00,-2.059088454904218768e-01,-1.353121439347864940e-01,1.559493243102335214e+01
2.094300000000000068e+02,4.115573988265126132e-02,3.167786132626144169e-01,9.614841616419449011e+00,-3.112310928665033560e-01,3.178643374922886511e-01,1.487801029496362837e+01
2.094399999999999977e+02,-2.698015199872071945e-01,9.340096917321326353e-02,9.805083351879289921e+00,-1.902609895484725921e-01,3.402327584067016963e-01,1.491006032403832293e+01
2.094499999999999886e+02,-3.040704945098076858e-02,1.336895161901727469e-01,9.577499902653324071e+00,-1.054981752194516925e-01,4.834969392450973458e-01,1.386048392295492171e+01
2.094600000000000080e+02,6.284007960474712051e-02,3.179368964781367768e-02,9.760904816085711033e+00,2.147548241359941573e-02,2.747361580822563765e-01,1.512254588458118576e+01
2.094699999999999989e+02,2.381975189509884933e-02,3.059110149455390171e-01,9.997989051735633126e+00,-4.298264125974071703e-02,-7.089170145538235823e-02,1.540002656171174600e+01
2.094799999999999898e+02,7.829069949032202436e-02,1.997316486243152223e-01,9.791884904916701160e+00,3.122843104184522822e-01,-5.773025408257530938e-02,1.484069001605741711e+01
2.094900000000000091e+02,-5.983755817705509877e-02,1.534803374523684982e-01,9.749214074493412596e+00,1.796008087192370040e-01,1.202264663455246824e-01,1.439933425574813874e+01
2.095000000000000000e+02,-2.823317952367690453e-01,2.280030152676420507e-01,9.770580430965701169e+00,8.971623214902230137e-02,-1.328860957798245201e-01,1.495840362334818430e+01
2.095099999999999909e+02,1.098884427992296298e-01,1.296590791692380229e-01,9.851152144269393673e+00,2.328854934068208538e-01,-2.211092459537911115e-01,1.471044964098858188e+01
2.095200000000000102e+02,7.591461765311076360e-02,1.061966565431922971e-01,9.820446659707767978e+00,2.687168249888424731e-01,1.304613504100148036e-01,1.518541532430934815e+01
2.095300000000000011e+02,1.568757235252427606e-01,4.855395509049227620e-02,1.001966228072669729e+01,-1.757404730278324875e-02,1.241293213139586515e-01,1.421595409609516736e+01
2.095399999999999920e+02,7.425641868632615675e-03,3.574801048707959561e-02,9.855799942389559476e+00,2.927608836135268122e-01,2.466280230637555304e-01,1.555072588638235409e+01
2.095500000000000114e+02,4.162391740148056046e-02,2.737603308877356589e-01,9.829893793189635076e+00,1.843326630975635760e-01,-3.859760245259818978e-01,1.531026656010973852e+01
2.095600000000000023e+02,2.329247703170100603e-01,2.934479628522488337e-01,9.799302822490982834e+00,-3.192554453883842402e-01,-4.100713366958964184e-02,1.470241720359737769e+01
2.095699999999999932e+02,-1.851010500918374435e-01,-2.900011291512266665e-03,9.797995320354608850e+00,-4.293402459783574598e-01,-3.468354716463632470e-01,1.505231900853088867e+01
2.095800000000000125e+02,4.447039622279917725e-02,1.615450353421682972e-01,9.973690168262406175e+00,-3.515961687645959843e-01,-1.719049563649824586e-01,1.440487881342951226e+01
2.095900000000000034e+02,1.217739603644375501e-01,1.772206223016749571e-01,9.881131867249569822e+00,-8.637660209986253168e-02,2.125779855556297060e-01,1.592510274640241086e+01
