t,ax,ay,az,gx,gy,gz
6.479999999999999716e+01,8.955255374169740490e-02,-1.591177354045665571e-01,9.845098036144955600e+00,-9.991298249537397536e-02,-1.462640541837271491e-01,-1.523694809244629944e+01
6.481000000000000227e+01,-1.740367825614485275e-01,2.851918855459475988e-02,9.612821875184415887e+00,4.658840373596011275e-02,-3.189915663946850666e-01,-1.495125516301486357e+01
6.481999999999999318e+01,-1.973676070094892987e-02,-1.904130191860633758e-01,9.786535797830813621e+00,2.402196876830001993e-01,1.800054887166082501e-02,-1.529062210928438859e+01
6.482999999999999829e+01,1.167209083647158530e-01,-8.653562332795601553e-02,9.835025843389656686e+00,-2.482785713029991292e-01,6.458191251813909239e-02,-1.485027747030656542e+01
6.484000000000000341e+01,5.011712644886682361e-02,2.693747997500967051e-03,9.673286529589873339e+00,1.339777516959592130e-01,2.093286240888271588e-01,-1.459855268929918637e+01
6.484999999999999432e+01,1.109522031957939489e-03,-1.536368967120025075e-01,9.663356925734298386e+00,-2.842109770209229058e-01,-4.490181878997298592e-02,-1.500046294856878681e+01
6.485999999999999943e+01,-4.491074688293152095e-02,-2.135789056110967699e-01,9.743647704350426153e+00,-1.955053981690113019e-01,3.502580561198571085e-01,-1.439506367478936433e+01
6.487000000000000455e+01,2.022258745919646925e-02,-2.049218062227956827e-01,9.725759899929553143e+00,-1.320632945981692064e-01,1.277096598507503067e-01,-1.557499697892495405e+01
6.487999999999999545e+01,5.772483723755298529e-02,-3.378097067710204016e-01,9.873987044052435991e+00,-2.636598014969980808e-01,-9.393661185428484051e-02,-1.538381959023314138e+01
6.489000000000000057e+01,-6.608943369861829120e-02,-2.125833614510621583e-01,9.758651548660806085e+00,-2.757719079810841967e-01,-2.802841992979925867e-01,-1.402921590562950449e+01
6.490000000000000568e+01,3.717360280120473454e-02,-3.088026030726897520e-01,9.707910536505917065e+00,2.032178427293097611e-01,1.827570716479939295e-01,-1.448411044464417330e+01
6.490999999999999659e+01,1.078430744198710656e-01,-8.844479542677344264e-02,1.002242172655338592e+01,3.487919820466386378e-01,4.548840741888239385e-03,-1.507175781480845345e+01
6.492000000000000171e+01,-2.224781332998583203e-02,-3.228825716943263258e-01,9.868445482069844843e+00,3.162532179309322511e-01,1.657257255356699710e-01,-1.531074469292272511e+01
6.493000000000000682e+01,6.812285014065171292e-03,-1.274426217112833715e-01,9.851924515107594260e+00,-8.460600522066395734e-02,1.419659026256458734e-01,-1.535976755294301022e+01
6.493999999999999773e+01,4.837788340027778661e-02,-5.289741651821074087e-02,9.712988801105426617e+00,2.768158540787379329e-01,-5.974661631646345505e-02,-1.505665882660988864e+01
6.495000000000000284e+01,5.513342160897440059e-02,-9.377027810454267864e-02,9.702530331790674367e+00,1.793289805709475937e-01,-2.357798969387840948e-01,-1.514369894078623879e+01
6.495999999999999375e+01,8.784535729984396801e-02,-2.149685177019868554e-01,9.778118237812581270e+00,-1.319762954422810941e-01,6.199023325592512013e-02,-1.548907461059794777e+01
6.496999999999999886e+01,-1.014374955981949961e-01,-9.028211212452338930e-02,9.941260116221753762e+00,-1.834311770500704139e-02,4.097736166766224875e-02,-1.495453206884974229e+01
6.498000000000000398e+01,-5.289225023853103003e-02,-1.656989704376399808e-01,9.695639008477103360e+00,2.088433630699980670e-01,-2.217909525308717558e-02,-1.476220642225145241e+01
6.498999999999999488e+01,-4.918786920496538012e-02,-2.123978614882112148e-01,9.617043728200885155e+00,-3.419525815483739906e-02,-1.152024964307773666e-02,-1.539763109043379963e+01
6.500000000000000000e+01,-9.039121651626769172e-02,-2.030087913067534222e-01,9.645210668324407877e+00,-8.345060623383510068e-02,-1.895035198924424624e-01,-1.485995149548097949e+01
6.501000000000000512e+01,-1.798413921357814860e-01,-1.223764619212112104e-01,9.623505487644962386e+00,-2.085052616243131818e-01,4.206889190205179152e-01,-1.425245546444647893e+01
6.501999999999999602e+01,-3.254478941297708205e-01,-3.223314081738353765e-01,9.738167169878176210e+00,1.126645580187232432e-01,1.443936440077807914e-01,-1.525684978232573741e+01
6.503000000000000114e+01,1.195452711752980346e-01,-2.170731856402003390e-01,9.930648282103089031e+00,7.297987191282943875e-02,-1.317315664896304972e-01,-1.520501436037120335e+01
6.504000000000000625e+01,-1.553893004447542969e-01,-1.291927858504136883e-01,9.614967947244696944e+00,1.102874069170058091e-02,1.033839908851363898e-01,-1.560232582159037662e+01
6.504999999999999716e+01,1.566509126705908361e-01,-2.179322503123659049e-01,9.800772076404983935e+00,1.643257365057840952e-02,-1.274395529843841690e-01,-1.474297595154830631e+01
6.506000000000000227e+01,7.394094886164624680e-02,-2.958467138080299041e-01,9.741915149805446816e+00,-3.447096032582370184e-01,1.372696853971822409e-02,-1.510543532545839440e+01
6.506999999999999318e+01,-4.056883798062532742e-02,-2.557993218232229027e-01,9.791044834074055458e+00,2.161006512474020202e-01,7.967822302259458533e-02,-1.564139024810168266e+01
6.507999999999999829e+01,6.164221048147337095e-02,-1.494553199721111725e-01,9.747380791786772747e+00,-5.094488050096575293e-02,2.171729562689573290e-01,-1.563653378818221640e+01
6.509000000000000341e+01,4.251332467137215049e-02,-1.183796065410742948e-01,9.589784017094739710e+00,-1.311441507007588252e-03,-2.230699342277843167e-01,-1.542843699659218615e+01
6.509999999999999432e+01,-1.101774362939773877e-01,-5.820868348358457234e-02,9.760009352445271347e+00,2.611766653702545238e-01,-1.348703411895879889e-01,-1.419124418491326090e+01
6.510999999999999943e+01,-1.497777362963067854e-03,-8.858838029908981671e-02,9.903585164899634918e+00,-1.737721078831722110e-01,7.046051424608489044e-02,-1.472704619342844268e+01
6.512000000000000455e+01,-9.798387725414921257e-02,-8.975775275836041234e-02,9.827775240127348155e+00,-4.022782220310730517e-02,-9.787593879368078342e-02,-1.542982316459591985e+01
6.512999999999999545e+01,6.541280021710922654e-02,-3.588247465224350674e-01,9.781782802855436998e+00,3.858797690248381637e-03,4.676822249815976856e-02,-1.526488237376145030e+01
6.514000000000000057e+01,-7.152209517993877996e-02,-9.136716674314987463e-02,9.882332913591241663e+00,1.808503784277684101e-01,-4.278385918095023444e-01,-1.495417494385607604e+01
6.515000000000000568e+01,-9.662953619667236094e-03,-2.183854115366550830e-01,9.788342713481407387e+00,-4.164742791732210098e-02,-1.913037425812835757e-01,-1.565196446877610725e+01
6.515999999999999659e+01,-1.397989190107495894e-02,-3.108210490479611510e-01,9.735856326334602073e+00,4.227587442975229148e-01,2.075629189313625833e-01,-1.323834758094141684e+01
6.517000000000000171e+01,1.215790005393821253e-02,-1.108756504528165265e-01,9.727675466917586888e+00,-3.884573067641453048e-01,1.254336961076542023e-01,-1.495033187350923320e+01
6.518000000000000682e+01,1.662555081114022171e-01,-1.487746473879638098e-01,9.784155591794069906e+00,-3.394423156997986718e-02,-1.163081650579638193e-01,-1.444571884044049526e+01
6.518999999999999773e+01,-2.409605828559182455e-02,-7.818961236281948834e-02,9.951053790134364974e+00,-1.518001597225671073e-02,-1.066316884622920541e-01,-1.586603966172936175e+01
6.520000000000000284e+01,1.217927141974515237e-01,-2.201098025907952949e-01,9.704204841444973084e+00,2.136948448190341132e-01,4.087393336771714125e-01,-1.469367799640152406e+01
6.520999999999999375e+01,4.799969943350376744e-02,-1.672371895617554283e-01,9.706203703305323671e+00,-1.276718650418760294e-02,2.704421425927074352e-01,-1.481742223006235548e+01
6.521999999999999886e+01,1.418402546036582612e-01,-3.467485512001151626e-01,9.901378521443881198e+00,1.422523950794165881e-01,-1.061516884768607394e-01,-1.541156496074921023e+01
6.523000000000000398e+01,-3.384357848148191600e-02,2.942894125340764222e-02,9.827919458860870705e+00,-1.546255142043174713e-01,1.197574180986889225e-01,-1.496305805217905771e+01
6.523999999999999488e+01,6.961362419695681092e-02,-3.004999321935586387e-01,9.958060704028545373e+00,5.045805180058827999e-02,-2.107303955423984743e-01,-1.507052801973991585e+01
6.525000000000000000e+01,-5.926802260034109808e-03,-2.476957778429286772e-01,9.956395047389937858e+00,3.740671644488463565e-01,-1.624484048210853016e-01,-1.478143140002245204e+01
6.526000000000000512e+01,-2.989393021163213593e-01,-2.697424857820643340e-01,9.893583349823078521e+00,-2.252728143343884215e-01,-1.117643049443016595e-01,-1.515818638255418094e+01
6.526999999999999602e+01,-1.089843585020475597e-01,-1.460103871399584530e-01,9.889294299092103557e+00,-1.634375443205330347e-01,-9.509803833515034777e-02,-1.477140847006974766e+01
6.528000000000000114e+01,5.823769459527516901e-02,-2.514753651934439893e-01,9.818141576105258395e+00,1.088463267487990160e-01,1.119976901519720291e-01,-1.536361715002713524e+01
6.529000000000000625e+01,5.162649162799985009e-02,-5.884511385352457491e-02,9.628288960231165206e+00,3.352614777827924719e-01,-1.279664578277872888e-01,-1.458623548880383858e+01
6.529999999999999716e+01,-1.294977388634923343e-01,-1.351864238795282280e-01,9.722655952067755791e+00,4.711085729680832002e-02,-1.667122273583013514e-01,-1.586167848561285432e+01
6.531000000000000227e+01,2.203675488380036490e-02,-3.156812038908261009e-01,9.732940322147161538e+00,5.340379085761581129e-02,-1.666290566886724500e-01,-1.481989172607798189e+01
6.531999999999999318e+01,5.032602265255053942e-02,-8.867919475389961226e-02,9.916565934805676719e+00,-1.010461646663024793e-01,-1.754135510243981511e-01,-1.547274209258447364e+01
6.532999999999999829e+01,-3.466556973760668431e-03,-7.547529864408807077e-02,9.986031004462819993e+00,-1.147179921651892975e-01,2.399360662398641042e-01,-1.447247254507314906e+01
6.534000000000000341e+01,7.288186376596363092e-02,-2.395191870342741614e-01,9.810739982181523544e+00,-3.064661941016548832e-02,-2.826799412562246983e-01,-1.524243179612786037e+01
6.534999999999999432e+01,5.925553079287687597e-02,-2.811020048548905637e-01,9.833963320109948114e+00,1.100701015616914191e-01,-3.038169193294404380e-01,-1.466641288332467319e+01
6.535999999999999943e+01,-3.514357940470761669e-03,-1.267996914265754893e-01,9.749525778527260655e+00,-4.460376666697549175e-01,2.414891186971621362e-01,-1.474755391282181627e+01
6.537000000000000455e+01,-5.108248188641185961e-02,-1.008004380774753100e-01,9.784133114660193087e+00,2.728405439704568725e-01,-1.903485560307289493e-01,-1.510119094772666770e+01
6.537999999999999545e+01,1.042541592092509489e-01,-2.670127335630451126e-01,9.766679514212828650e+00,3.728046749124874770e-01,2.232273887732555417e-01,-1.620783648882433070e+01
6.539000000000000057e+01,4.631620978788213161e-02,-7.431069226364477032e-02,9.984157288695937993e+00,1.364397689633891353e-01,7.596754905193975338e-02,-1.479117481920307320e+01
6.540000000000000568e+01,-1.381432652530298066e-01,-2.240354316825038938e-01,9.967012223463079579e+00,-2.850581631856539122e-01,1.429280229530500157e-01,-1.539568298512400446e+01
6.540999999999999659e+01,2.208976560813874848e-02,-4.834723124218850976e-02,9.676409385661800755e+00,-2.300530354313909120e-01,-2.446818074281680022e-01,-1.540496031842315183e+01
6.542000000000000171e+01,-1.151024709457733747e-01,-3.246481729884248546e-01,9.822025208599807655e+00,7.260049651690378414e-02,2.344507056963538172e-01,-1.522236961080018602e+01
6.543000000000000682e+01,-9.645679324291751844e-02,-2.399982144963884734e-01,9.782873616249204929e+00,2.127900495423734606e-01,-1.072985830133444188e-02,-1.470681171641782470e+01
6.543999999999999773e+01,-6.519100353856370489e-02,-1.875073879450565584e-01,9.438665858842872680e+00,8.385499266651304240e-02,-6.740290554906666620e-02,-1.500778159485852115e+01
6.545000000000000284e+01,4.487323565970198318e-03,-2.657855398592794960e-01,9.941213747431989489e+00,-9.438283948710041171e-02,1.044915139172696572e-01,-1.490304614027799346e+01
6.545999999999999375e+01,3.744855775912856594e-02,-1.698319775956855238e-01,1.005735173113699510e+01,-2.772772437487138961e-02,1.239410250242751338e-02,-1.450868251056589209e+01
6.546999999999999886e+01,-4.089418892412716167e-02,-2.013467523391616054e-01,9.909729908490279016e+00,1.815972425564857384e-01,-1.398637427070269779e-01,-1.489923048597180255e+01
6.548000000000000398e+01,-3.651826162937345244e-02,-1.876341225326177697e-01,9.772843006287468270e+00,-4.709065443826898623e-01,2.501081565921906558e-01,-1.421942420721581790e+01
6.548999999999999488e+01,-5.032436553016811365e-02,-2.070646308249585732e-01,9.938569683732549009e+00,1.878274927613202486e-02,-1.943021266612404707e-01,-1.451620683547354318e+01
6.550000000000000000e+01,1.047513637087628680e-01,-2.957249832046262572e-01,9.857338404757053141e+00,2.281678747561445564e-02,-3.942334336927370564e-01,-1.576062351661486716e+01
6.551000000000000512e+01,-2.852943503599653652e-01,-1.689646305786631775e-01,1.000879363542993161e+01,-2.368685429227854744e-01,8.695947266650781715e-02,-1.562296524581996948e+01
6.551999999999999602e+01,-3.086774096747828613e-02,-1.792222002217139232e-01,9.845233299195681909e+00,2.380407580451264771e-01,1.402112747649636448e-01,-1.530651401128919709e+01
6.553000000000000114e+01,1.544984795382366161e-01,-2.675628746270853342e-01,9.809972992447445250e+00,-7.541491492943999675e-02,2.375912014580475184e-02,-1.449320313852924436e+01
6.554000000000000625e+01,5.172300502773870268e-02,-4.176138524977406064e-02,9.805043704739164312e+00,1.201535297272483815e-01,-1.046382162858034981e-01,-1.482963358077753746e+01
6.554999999999999716e+01,1.266847240567124666e-01,-1.351756419528839515e-01,9.781989733688606137e+00,-3.808493014734234267e-03,-2.858733718747106245e-01,-1.449738657314154544e+01
6.556000000000000227e+01,-2.034248859510923158e-01,-9.470093286178436764e-02,9.865562003824262405e+00,-1.738132169359811741e-01,8.827749867316808663e-02,-1.538212682479974802e+01
6.556999999999999318e+01,-1.242249231469122750e-01,-2.475364748563920192e-01,9.959755754183424514e+00,1.539357999419400658e-01,-6.059018447313853362e-02,-1.527888489336993239e+01
6.557999999999999829e+01,5.140481406864676889e-02,-3.975650474674246038e-01,9.701376632980061032e+00,3.331747601936007053e-01,-6.578721972397673368e-02,-1.580560776265961209e+01
