t,ax,ay,az,gx,gy,gz
1.839000000000000057e+01,4.886919527092181692e-02,-2.990944374101983660e-01,9.712212059617650439e+00,2.859457066395335589e-01,3.730644487117804747e-02,-1.522310740046542854e+01
1.839999999999999858e+01,-1.819307928664723739e-01,-2.001595626096782654e-01,9.808792541879125082e+00,5.051382335145006008e-01,4.620831306630242968e-02,-1.591911449436657477e+01
1.841000000000000014e+01,-6.931868272364193062e-02,-1.948273881120869411e-01,9.798296745957996379e+00,-2.787818497407257845e-01,4.276017099430845514e-02,-1.496632899608429668e+01
1.842000000000000171e+01,-1.835657632862036925e-01,-3.922762644572114210e-02,9.858831187468961588e+00,-6.443870031477084981e-02,1.574588177474390005e-01,-1.517151245302645002e+01
1.842999999999999972e+01,1.171245789321543607e-01,-3.285703519488606394e-01,9.718998202571265566e+00,-1.844635044438462657e-01,1.518675381594695173e-01,-1.496776195470740234e+01
1.844000000000000128e+01,1.585646492885732783e-01,-1.494251278040629738e-01,9.927182436953964739e+00,-1.021155733967586826e-01,-8.658275420925272067e-03,-1.489396544087646568e+01
1.844999999999999929e+01,7.795667272403815351e-02,-3.027651794771434313e-01,9.859661599114376784e+00,-1.538134651462745861e-01,-2.668859916351459804e-01,-1.629503993672279805e+01
1.846000000000000085e+01,-9.867860457395449814e-02,-3.622650443504690232e-01,9.677731871722158985e+00,-4.103962237412302483e-01,-1.905847370592396450e-01,-1.555139436459121782e+01
1.846999999999999886e+01,1.482022493615790804e-01,-2.160925197614791682e-01,9.836997254500275290e+00,3.410805991711644003e-01,-3.595968766248282961e-02,-1.515497990994410671e+01
1.848000000000000043e+01,-2.532549100252101670e-02,-1.647797491776492596e-01,9.814225583708880762e+00,4.592624893285386645e-02,3.108982774355960321e-02,-1.445546757960435791e+01
1.848999999999999844e+01,-1.214459280752661630e-01,-3.944437071076173362e-02,9.801503338234747176e+00,1.678462924210453663e-02,-1.997611888963391202e-01,-1.519255563904177819e+01
1.850000000000000000e+01,-9.644042546116923798e-02,-1.935914000209211783e-01,9.663077692112553407e+00,8.102192023221645167e-02,-2.574012623138863254e-01,-1.457095891763931839e+01
1.851000000000000156e+01,-4.301566355918368806e-02,-2.205159641116107017e-01,9.778224527179741443e+00,-6.244159308329897407e-01,6.445249100714277590e-01,-1.520106242275067210e+01
1.851999999999999957e+01,4.957852048470660217e-03,-2.368619965984253284e-01,9.746510169832347970e+00,-9.467443743943892986e-02,-1.053113355404826923e-01,-1.491440959734174498e+01
1.853000000000000114e+01,-1.613442116517937314e-02,-2.184177940412345142e-01,9.765105432262576102e+00,-2.302514729766787921e-02,-5.857174181071546685e-05,-1.464616417441625629e+01
1.853999999999999915e+01,-1.412668418171027229e-01,-5.188475090063054962e-01,9.900739460887040266e+00,2.417961233157586709e-01,1.918691879182627680e-01,-1.464302399766127216e+01
1.855000000000000071e+01,1.213316409185641875e-01,-2.485952122714687185e-01,9.742752174107597085e+00,2.094725293016208578e-02,8.508511498535513418e-02,-1.512009887844869738e+01
1.855999999999999872e+01,-1.506059194368432677e-02,-8.651069331523654482e-02,1.002923563666574402e+01,3.372859966114053476e-01,-1.240376433712830767e-01,-1.508417773419592045e+01
1.857000000000000028e+01,-7.137538562706509382e-02,-4.120236625221581628e-01,1.005771519889185051e+01,3.110137455675944795e-01,1.311279118106908614e-01,-1.500168355115627072e+01
1.857999999999999829e+01,1.110302361982764136e-01,-2.081790138203690466e-01,9.845979485949230892e+00,-2.119871217851304890e-01,2.489710000139175594e-01,-1.480824081573147311e+01
1.858999999999999986e+01,-1.183406188266531295e-01,-1.955372081430943876e-01,9.681566676434966823e+00,-5.573235905631932635e-02,-1.169948064095355789e-01,-1.566032686997781731e+01
1.860000000000000142e+01,-1.628890183574514816e-01,-9.502775287150970474e-02,9.681523576451496638e+00,8.131533837804549858e-02,2.386999016161989173e-01,-1.505828480839980088e+01
1.860999999999999943e+01,1.272487446598739025e-01,-1.549981374843326931e-01,9.857441783711806238e+00,-1.739209232511672309e-01,1.307289451121511348e-01,-1.606079653805105778e+01
1.862000000000000099e+01,1.891387849550338895e-01,-1.244910120538908205e-01,9.786872847316633539e+00,-1.261121980037864243e-01,-5.165869554139351782e-02,-1.539962181269311614e+01
1.862999999999999901e+01,-4.620960186513983770e-02,-2.412617010316011057e-01,9.737385008223199634e+00,-1.933410850534923731e-02,-6.692121745548383627e-02,-1.546511938606658809e+01
1.864000000000000057e+01,-4.597000791714518989e-03,-3.424964754763493158e-01,9.811269490890365930e+00,-2.922271463998881921e-02,4.548836069748447564e-01,-1.442264488459970551e+01
1.864999999999999858e+01,-1.146664714520903572e-01,-2.196684763638315496e-01,9.680104362764545556e+00,-1.640689752963343517e-01,1.828487048325149744e-01,-1.532782711919145946e+01
1.866000000000000014e+01,5.492550243393306934e-04,-1.809342394614801564e-01,1.004832414392999951e+01,-8.435644105445651297e-02,-1.094052036606698863e-01,-1.495944946887867388e+01
1.867000000000000171e+01,-4.757052637311968979e-02,-5.087241946852912033e-02,9.867533652035987757e+00,6.975045867058805860e-02,-1.631207450831941574e-01,-1.464282382473085953e+01
1.867999999999999972e+01,-1.021284400349993342e-02,-3.094359601970795848e-01,9.973741382490944218e+00,-1.469156315368795596e-02,-3.008479583634012799e-01,-1.490292452545966917e+01
1.869000000000000128e+01,4.092583875972426177e-02,4.221323862744777444e-02,9.906282420303679004e+00,-2.017652100084222910e-01,-2.233774642360668305e-01,-1.476689585209882516e+01
1.869999999999999929e+01,-1.098145478030846667e-01,-1.494154689013770798e-01,9.886171028506415936e+00,3.244814801333382737e-01,1.236893642848531788e-01,-1.509166965079432643e+01
1.871000000000000085e+01,-3.618113392325674610e-02,-2.427845752428144932e-01,9.721058487174852658e+00,5.973260538191929037e-01,8.037601268880106842e-02,-1.491047639606827246e+01
1.871999999999999886e+01,-1.803781421778178351e-01,-2.479743933168352399e-01,9.546789292225863477e+00,1.995350951566946529e-01,-1.148395297704326579e-01,-1.451568695908865259e+01
1.873000000000000043e+01,-3.549872841132880458e-02,-1.826351150766963860e-01,9.914216739918320087e+00,1.597996516756465925e-03,5.205059814135098994e-02,-1.403114876504954545e+01
1.873999999999999844e+01,-9.343407091699951206e-03,-1.734338773531472200e-01,9.811881495724044555e+00,-8.132851980446190177e-02,-4.448780772923002225e-01,-1.604616050386206894e+01
1.875000000000000000e+01,2.289824250610780765e-02,-1.653437943143943045e-01,1.003072406765726043e+01,-1.876109982893734568e-02,1.927042797432083621e-01,-1.497979701949934039e+01
1.876000000000000156e+01,2.395765403632087176e-02,-1.029092245334480710e-01,9.767090520252518004e+00,-2.535321299958834349e-03,3.222291920272251087e-01,-1.593297094916981038e+01
1.876999999999999957e+01,9.039227507368559345e-02,-2.327855164128705689e-01,9.812310218694445751e+00,-1.284711840720874701e-02,1.557544034861874371e-01,-1.437098282008692429e+01
1.878000000000000114e+01,-1.539666519273319989e-01,-1.560327459782334392e-01,9.776490587633290374e+00,6.351521578686317171e-02,5.706095929128909838e-02,-1.585978200461762455e+01
1.878999999999999915e+01,-1.486277029950293926e-01,-2.001652543028023257e-01,9.943480936975740647e+00,1.180842914252861892e-01,1.255221887802829006e-01,-1.593904868561871346e+01
1.880000000000000071e+01,5.289579363925203670e-02,-1.994794435506458408e-03,9.568286739120543061e+00,3.482944749622769454e-01,-5.045179441701419520e-01,-1.328611066769552984e+01
1.880999999999999872e+01,-2.038961277005416073e-01,-3.474582091950982887e-01,9.849688878687423710e+00,1.212323897005900541e-01,1.046398997234668643e-01,-1.503646388283226543e+01
1.882000000000000028e+01,1.833002121049931432e-02,4.784925172551007799e-02,9.744782608105261090e+00,-1.038064057995263384e-01,-1.874773395204982207e-01,-1.480489475416083067e+01
1.882999999999999829e+01,-1.180292939589893814e-01,-2.550268289948759426e-01,9.817535880196803788e+00,-1.719752015072295859e-01,2.523423955678317787e-01,-1.371765333114437979e+01
1.883999999999999986e+01,1.572814640917181428e-01,-2.752171385013709726e-01,9.965665039192291630e+00,4.738466307298590252e-02,1.996579270592395150e-01,-1.431487049489095575e+01
1.885000000000000142e+01,2.504524077277774444e-02,-1.962836828332304717e-01,9.702864968889455710e+00,-2.051271250139599656e-02,1.781381297117944351e-01,-1.455497682231795231e+01
1.885999999999999943e+01,-2.191560197130617768e-02,-1.450590440441960616e-01,9.701073273934218477e+00,2.945534126174597089e-01,-1.134344607244371500e-01,-1.459001351053510120e+01
1.887000000000000099e+01,1.227720877139178435e-01,-2.029932078812381746e-01,9.998270887289050890e+00,1.411572619470435330e-01,-1.835122454890848742e-01,-1.531549778409795692e+01
1.887999999999999901e+01,-1.063402006570950964e-01,-1.069180367584744162e-01,9.774876946682185874e+00,-1.721864440106143090e-01,1.369493818847297983e-01,-1.537897915944812333e+01
1.889000000000000057e+01,-8.734096340878083620e-02,-2.116137003375379577e-01,9.756884015592456549e+00,-4.528170502484211990e-02,-1.174328986990782475e-01,-1.588979490919829551e+01
1.889999999999999858e+01,-1.261454833655109020e-01,-2.310323430760700125e-01,9.758484503093933782e+00,-1.479304387179098956e-01,-1.801642510046211898e-01,-1.470013906363561773e+01
1.891000000000000014e+01,-8.650392263489931066e-02,-2.591237320553578249e-01,9.646542919258232374e+00,3.561221662723353942e-01,-2.744109829389760891e-01,-1.476435805047226246e+01
1.892000000000000171e+01,6.111560936738784020e-03,-4.061975860784339254e-02,9.965943304320706631e+00,-1.533560398385557244e-01,3.629487925221592803e-01,-1.452593716550084046e+01
1.892999999999999972e+01,4.939518719937205371e-02,-1.282284565724741976e-01,9.954351066064720754e+00,-2.513164316183345015e-01,-1.364583432872555624e-01,-1.496490654832938461e+01
1.894000000000000128e+01,9.614216853675427998e-02,-2.823601696152036600e-01,9.636945305784648141e+00,-9.618853627673021323e-02,1.623752155992732593e-01,-1.539123469200690053e+01
1.894999999999999929e+01,-1.824724046900739194e-01,-2.118994299642533441e-01,9.775860473845439103e+00,-2.589984841546181804e-01,-7.406305903898979803e-02,-1.490771151023272267e+01
1.896000000000000085e+01,-1.718629864632917337e-02,-2.990515491334165832e-01,9.653332236695341351e+00,-2.556500122701889643e-01,-8.509426359077346125e-02,-1.482591481716786497e+01
1.896999999999999886e+01,-1.108164531190801716e-01,1.059090068702412124e-01,9.890804919558860320e+00,9.709015852940316993e-02,2.474085280375297458e-01,-1.565291989504368786e+01
1.898000000000000043e+01,-2.052870914881009534e-02,-1.483561476384453737e-01,9.870002242175029750e+00,1.395546303797320399e-02,6.763868855631706423e-02,-1.456193506842647167e+01
1.898999999999999844e+01,2.334163580127039950e-01,-3.656411759312063747e-01,9.710575611007588037e+00,4.569612952829253949e-01,9.440462347454776915e-02,-1.501597664113180564e+01
1.900000000000000000e+01,2.918617620000149571e-02,-3.026602153800783124e-01,9.765800564503084757e+00,4.452918350267576209e-01,1.552783942961645236e-01,-1.484904052537743979e+01
1.901000000000000156e+01,8.994649711482459453e-02,-2.917087285016055076e-01,9.945424017199487210e+00,4.644942231049044995e-02,1.544823642088360427e-01,-1.457080760997106239e+01
1.901999999999999957e+01,1.960691272161046994e-01,-1.374017608688933578e-01,9.796117730515891964e+00,1.644032314474298262e-01,-9.129556359315410541e-02,-1.511602874326674240e+01
1.903000000000000114e+01,1.127358243174758218e-01,-3.364497667821645388e-01,9.747858506545339807e+00,-3.609294956266902166e-02,-6.230150569215123918e-02,-1.524073193692084693e+01
1.903999999999999915e+01,-4.479144796869845985e-02,-3.032255210287116975e-01,9.907021601566439628e+00,2.065644483866618808e-01,2.107556454198580287e-01,-1.323715512132097416e+01
1.905000000000000071e+01,-1.275832086569938240e-01,-1.917972578745518741e-01,9.817943486714531431e+00,5.761807669256179855e-03,3.700326986935827955e-01,-1.441473943876217945e+01
1.905999999999999872e+01,-3.014426952085112743e-03,-1.749580821148558341e-01,9.938755884790424489e+00,-7.588064187420220930e-02,-6.029411096703034961e-02,-1.527057880397635437e+01
1.907000000000000028e+01,-5.677057842186854913e-02,-2.220830937415467221e-01,9.905912616294850537e+00,-1.252910853825825732e-01,4.167276628079157885e-01,-1.502287115631778569e+01
1.907999999999999829e+01,-1.524521286619174298e-01,-2.081920224508510275e-01,9.875304694406773720e+00,-3.102280492636466311e-02,1.080330986314387808e-02,-1.491883884481334555e+01
1.908999999999999986e+01,2.409249972894686453e-02,-3.101766128365862629e-01,9.721838062865957752e+00,9.129128686974748164e-03,-1.355121811243506329e-02,-1.539708567837763020e+01
1.910000000000000142e+01,2.658862980593329484e-02,-1.220525369895217593e-01,9.943412319496871987e+00,2.074200615318594620e-01,2.929409927490064791e-01,-1.559463901796969587e+01
1.910999999999999943e+01,1.769116700263286546e-01,-3.668240613373882075e-01,9.810759830293516615e+00,9.332337064106186950e-03,-1.212090650498169470e-01,-1.517058870686736327e+01
1.912000000000000099e+01,-3.617630688368136949e-02,-1.831190301205778692e-01,9.817870668315316962e+00,-2.332791984883673675e-01,2.064183156148060305e-01,-1.438000291361334249e+01
1.912999999999999901e+01,2.801213889694491310e-02,1.138261387486927401e-02,9.659798015655002956e+00,2.904387642136707082e-01,2.380560311901793735e-01,-1.500359655907979572e+01
1.914000000000000057e+01,-6.654854146902154655e-02,-2.032720975254737328e-01,9.742251922638455852e+00,1.858657585412041777e-02,2.715633097778968330e-01,-1.517110587714659076e+01
1.914999999999999858e+01,8.731694306934659200e-02,-3.065700190156266380e-01,9.718062212785538279e+00,1.931076092974435277e-01,-8.996183102707894230e-02,-1.505149291776036158e+01
1.916000000000000014e+01,-1.246177961901297204e-02,-1.783329997547697943e-01,9.861161383252053270e+00,-4.117965396538225686e-01,9.307869912744941299e-02,-1.551770770406731614e+01
1.917000000000000171e+01,-1.172591608852742717e-01,-1.974869301421581513e-01,9.900503379748405663e+00,-2.437001106466553935e-01,2.499300334220766195e-01,-1.504151476686824651e+01
1.917999999999999972e+01,-1.347182166515796097e-03,-1.482199747934570822e-01,9.782718536490056849e+00,-5.367090749791606497e-01,5.867823647140763162e-03,-1.536582174805191947e+01
1.919000000000000128e+01,3.905228975650010953e-02,-1.498369636038363595e-01,9.824447340922853655e+00,-1.421375035568378242e-01,8.500842486285006827e-02,-1.523394312415969765e+01
