t,ax,ay,az,gx,gy,gz
1.935999999999999943e+02,1.606892700482211445e-01,2.476674891089279407e-01,9.767823269788344476e+00,-1.725534614690053467e-02,-3.015126191405521072e-01,1.600927598746316960e+01
1.936100000000000136e+02,-5.452870705094125386e-02,3.948045874825327761e-01,9.938388244365851776e+00,6.679960560003438130e-02,-4.937827533326678564e-01,1.490435593047524598e+01
1.936200000000000045e+02,8.185370524351505417e-02,2.520177654964217417e-01,9.979194261945869115e+00,3.216049787392039061e-01,-1.570183733740754262e-01,1.428497520713024649e+01
1.936299999999999955e+02,1.395440490587552540e-01,2.295586291490636921e-01,9.781393289099257871e+00,-2.100586522815594270e-01,-8.270110332936847497e-02,1.593562525961201715e+01
1.936399999999999864e+02,-2.430440626447471358e-02,2.676074405286934521e-01,9.837629423965537967e+00,2.626196645258142004e-01,1.485457282056788786e-01,1.494849183710762475e+01
1.936500000000000057e+02,1.405428681535929314e-01,4.286148120409967455e-02,9.845211864337844787e+00,2.327906904041784630e-01,-1.376539021881600655e-01,1.414803673959081287e+01
1.936599999999999966e+02,1.588646731198175080e-02,1.462470623691763116e-01,9.965517461674515687e+00,-9.831759894676751765e-02,-7.665984833106838370e-02,1.519286923409792145e+01
1.936699999999999875e+02,-1.018653781302659711e-01,5.954741758209694535e-02,9.876455034589826099e+00,1.410423477497198819e-01,-3.311688848507145511e-01,1.473735620859186390e+01
1.936800000000000068e+02,-7.099652740337308865e-02,1.488500553305071306e-01,9.903655014673887536e+00,-2.734883908186011223e-02,3.205662495436262618e-04,1.444988231977861304e+01
1.936899999999999977e+02,-1.443414436258551314e-01,2.116374444178008851e-01,9.994932249152784109e+00,-3.101271226653235513e-01,-1.185937117851806333e-01,1.507737814228259232e+01
1.936999999999999886e+02,-3.890510042053922646e-03,1.519538467179997743e-01,9.832694437950106447e+00,-1.267954799968694646e-01,-2.179878808216721142e-01,1.489645061875953758e+01
1.937100000000000080e+02,-1.601835662350087688e-02,1.522901836843472134e-01,9.874399595074159208e+00,-5.025271969213088163e-02,5.305697082373096729e-02,1.536164616300178665e+01
1.937199999999999989e+02,1.883903149065469310e-02,3.101761957552079396e-02,9.839201852931944714e+00,1.209918516352293250e-01,-1.268765724160160202e-01,1.564553240514943688e+01
1.937299999999999898e+02,1.361702119932326205e-01,1.142126060922320496e-01,9.802735946920879684e+00,-2.576263613502780547e-01,-8.127856835242874833e-02,1.527350978233754830e+01
1.937400000000000091e+02,-1.643330920075887144e-03,3.334805389366981565e-01,9.674708635644970300e+00,-9.961669312760274009e-02,3.576166827491364386e-02,1.562470333976924763e+01
1.937500000000000000e+02,-2.671293106425735170e-02,1.109726516939690405e-01,9.701442566906788301e+00,-1.615138213944092849e-01,4.038395334312755991e-01,1.488560403626273043e+01
1.937599999999999909e+02,-1.995052053692912553e-02,1.322113821610235440e-01,9.654882827111991972e+00,-2.245571500101326348e-02,1.883087496266721561e-01,1.594563691454708554e+01
1.937700000000000102e+02,-1.853349512069381588e-01,1.899898010211534816e-01,9.848632558576822404e+00,3.694057897501105692e-01,2.931643799041633303e-01,1.507353211898661804e+01
1.937800000000000011e+02,6.834652781834198165e-02,2.037841688544242413e-01,9.869285313146285432e+00,-4.672694587207186223e-01,-3.399673701246754276e-01,1.500928098542104649e+01
1.937899999999999920e+02,-1.507924749604273688e-02,1.529795443344902917e-01,9.702945685390238495e+00,-6.659641947099836055e-03,-3.362320902750416673e-02,1.512804319488301630e+01
1.938000000000000114e+02,8.033176151922583400e-03,2.707946168614286386e-02,9.746008699395661168e+00,1.024036436651343945e-01,-3.152313151286989523e-01,1.539072590045839029e+01
1.938100000000000023e+02,-2.007649385269932515e-02,2.207524159564061839e-01,9.801894487845288495e+00,1.943554822467512266e-02,-1.469539144327174918e-01,1.532242003671440145e+01
1.938199999999999932e+02,1.273850998269977601e-02,3.587283010527767546e-01,9.965527745575682772e+00,3.203863828713843231e-01,-3.845896700102650612e-01,1.543504160109100098e+01
1.938300000000000125e+02,-1.311758544475317145e-01,3.502427285594050810e-01,9.775368539832147263e+00,9.621692017119985729e-02,-3.639247972661169839e-01,1.379840960449233300e+01
1.938400000000000034e+02,-1.080557254995711397e-04,9.491916411206381687e-02,9.966159176080996218e+00,4.775760929286321232e-02,1.485895105145341455e-01,1.503730115282694513e+01
1.938499999999999943e+02,-6.040322904454045738e-02,2.068937514420672863e-01,9.504696403405244354e+00,-2.244887946420430769e-01,1.527124236447483518e-01,1.532598317007335709e+01
1.938600000000000136e+02,3.492913375477898607e-03,4.196478091581840042e-01,9.908815203291915452e+00,2.284991099228568801e-01,3.142078905746227835e-01,1.488949777476799419e+01
1.938700000000000045e+02,-1.014962413228682192e-01,1.662950054639422415e-01,9.675180118163606124e+00,-2.033436873553884916e-01,3.868196748015341468e-02,1.456391115635808831e+01
1.938799999999999955e+02,4.785645404003818076e-02,1.921384739690417121e-01,9.797410730162766868e+00,6.019832467654082780e-02,2.017324027104178408e-01,1.422824312280783587e+01
1.938899999999999864e+02,2.140532153797480939e-03,1.729637608849146635e-02,9.718865862831197688e+00,-2.517446224510427877e-01,1.842337227071275119e-01,1.455518900743946809e+01
1.939000000000000057e+02,-1.295479265423850612e-01,2.708658297916388680e-01,9.784941254710952663e+00,3.522426073162663318e-01,-2.602180808570773718e-01,1.444713764577379855e+01
1.939099999999999966e+02,9.463355628647136808e-02,1.944834473011467779e-01,9.783244612109195160e+00,2.108194217700257167e-02,8.234107062790392562e-02,1.551164410049304720e+01
1.939199999999999875e+02,-5.143412605706124824e-02,7.747641434451268960e-02,9.736302100576525120e+00,2.386823525719460326e-01,1.927781155450884742e-02,1.517049624927381757e+01
1.939300000000000068e+02,-3.586199493630518043e-02,2.360093423129656642e-01,9.803975407223298077e+00,1.661105169657485225e-01,6.093672078110685952e-02,1.550835036641456810e+01
1.939399999999999977e+02,7.982169535706601371e-02,2.644782837302015466e-01,9.824604419494496810e+00,2.659986866915008477e-02,2.857765704630767511e-01,1.549333662267196665e+01
1.939499999999999886e+02,1.073380115138630742e-01,9.729513030706145316e-02,9.692815761705293909e+00,1.536807870120749375e-01,-2.433177071161993742e-03,1.562692411041431306e+01
1.939600000000000080e+02,-4.658778447797481959e-02,5.264019437292433157e-04,9.710515685585329848e+00,-5.855972314070853613e-03,-3.775192411329606479e-01,1.585104211794765305e+01
1.939699999999999989e+02,1.114848171510777683e-02,1.805774708923043037e-01,9.948752930941608952e+00,-5.064321399175172322e-01,-4.806801207866877590e-01,1.497971578128870362e+01
1.939799999999999898e+02,6.819688604934749654e-02,2.359180580755820822e-01,9.803436202992113380e+00,-2.111010188514478580e-01,-7.873993593137815911e-03,1.509831246082741707e+01
1.939900000000000091e+02,1.263261422331150852e-01,1.933546885200412013e-01,9.817081745054382580e+00,1.553015289519207864e-01,-1.318592116422661054e-01,1.565721099557768525e+01
1.940000000000000000e+02,8.867731672515512253e-03,2.824713829432652368e-01,9.724670266328606871e+00,-1.465113364879100100e-01,-2.731041146573118250e-01,1.519866599554215902e+01
1.940099999999999909e+02,4.717364144754229716e-02,-4.565177243400997398e-03,9.822588035204876888e+00,-3.421644487020443492e-02,-1.751401099708717046e-01,1.545053377979595943e+01
1.940200000000000102e+02,-9.139433523080077448e-02,6.520520142724024748e-02,9.752929963885957676e+00,1.070764346948248485e-01,1.811066842213311379e-01,1.412771883707423726e+01
1.940300000000000011e+02,-1.512303230223534523e-01,1.888344998376355888e-01,9.867079914424017772e+00,2.373967587986862762e-02,5.877322872532414477e-02,1.570968413374835571e+01
1.940399999999999920e+02,5.548979270078645970e-02,1.092458004568816476e-02,9.761027089564420223e+00,-2.820234921975608433e-01,4.863840971874931578e-03,1.581121419365127778e+01
1.940500000000000114e+02,-8.069263194902846770e-02,9.088172972323792231e-02,9.784508554594330221e+00,-2.712529901063377435e-01,3.077918439436180820e-02,1.573367438262467388e+01
1.940600000000000023e+02,-9.243571318584792307e-02,1.139593850869705244e-01,1.001388519698010171e+01,4.801768585876219769e-02,4.275323060760693322e-02,1.435724629787786100e+01
1.940699999999999932e+02,6.414197688667168384e-02,2.683263642500983703e-01,9.861296161571466712e+00,2.200173275125951455e-01,1.880072721623068377e-01,1.527916973187780592e+01
1.940800000000000125e+02,-1.474489077805223730e-02,2.973037652034826173e-01,9.789629662177240732e+00,3.534781930599426580e-01,-2.320752994050630236e-02,1.529156794421334631e+01
1.940900000000000034e+02,2.275702828150975507e-02,2.390447204262731162e-01,9.813341737227821326e+00,3.906864749405417059e-01,-3.316365144441243418e-01,1.429214754090033246e+01
1.940999999999999943e+02,-1.283242567145974622e-01,3.541186500770976409e-01,9.926736542909495142e+00,1.133443663132083778e-01,5.711133825294942290e-02,1.549501100149474730e+01
1.941100000000000136e+02,-9.110710862795801113e-02,3.066143868151037788e-01,9.699967549534026290e+00,2.028876064811970803e-01,7.602681609731543055e-02,1.505726827166668258e+01
1.941200000000000045e+02,1.630618980116362859e-01,2.456680367711992774e-01,9.808128008065112979e+00,1.192758258334328386e-01,7.644926659401003743e-02,1.385229396531738821e+01
1.941299999999999955e+02,-6.580058510221363510e-02,2.426657669690742147e-01,9.811956382701948698e+00,-1.827110706709358934e-01,1.785306774074352509e-01,1.481004912428763021e+01
1.941399999999999864e+02,-2.032925050808895295e-02,1.080277832847524877e-01,9.826436311744691565e+00,-2.040330905659120675e-01,-1.493375399252005742e-01,1.572767593852256240e+01
1.941500000000000057e+02,2.373630054713049553e-02,2.718273605460849729e-02,9.754370222268814672e+00,2.299628925691626913e-02,1.309361010287846960e-01,1.508905294324274138e+01
1.941599999999999966e+02,-1.069960857855082603e-01,9.526847051203288230e-02,9.785857930008393879e+00,2.190678193946828944e-01,3.282005160955829282e-01,1.613557255052716854e+01
1.941699999999999875e+02,1.352799845695719927e-01,2.508244983773335601e-01,9.619238776289368076e+00,-1.514961710160666886e-01,-8.098649762367182703e-02,1.453266212880368435e+01
1.941800000000000068e+02,7.502974481688076507e-04,1.353380142488256332e-01,9.869482802602307814e+00,-9.783954530908875111e-03,3.891334092579928211e-02,1.576604712442922818e+01
1.941899999999999977e+02,-2.364146302786353238e-02,2.277870665643311754e-01,9.727250516972715033e+00,1.553708891212819410e-01,-2.432518220084164615e-02,1.439133498631106001e+01
1.941999999999999886e+02,1.068113288502888364e-01,-1.617666130870507035e-02,9.998399424071873653e+00,-1.561051280018619682e-02,-2.347563700093394101e-01,1.569825475348244481e+01
1.942100000000000080e+02,9.117999464107456875e-02,2.192480348979170268e-01,9.812012297905072344e+00,7.394152678330612356e-03,2.374588829781937305e-01,1.573788784743954317e+01
1.942199999999999989e+02,1.966990882370666105e-01,8.113350293920681966e-02,9.707302663047487457e+00,2.410315182783547838e-01,-2.217370622688348905e-02,1.479969670754228339e+01
1.942299999999999898e+02,-4.370322923294635287e-02,9.380235978333929803e-02,9.659683157635384987e+00,7.046279764886577146e-01,-9.868497354614265415e-02,1.506616073454777194e+01
1.942400000000000091e+02,2.193277503060610256e-01,3.332806956417557753e-01,9.782246830650960234e+00,-2.480604522130024359e-01,1.457849487199752714e-01,1.512308071316315861e+01
1.942500000000000000e+02,6.461402606020927308e-02,3.817884718399692234e-01,9.854779368900054237e+00,-1.886047593315168941e-02,2.348718595202427262e-01,1.503416305578618406e+01
1.942599999999999909e+02,1.690403443014418527e-01,5.927896577711581905e-02,9.855614808505752222e+00,4.052504727832681453e-01,-1.026471386389306018e-01,1.536090904098381849e+01
1.942700000000000102e+02,9.858039103443025364e-02,1.435925889184599402e-01,9.714630786992836775e+00,2.144597915085737563e-02,-2.941254484996388974e-02,1.439297870805882162e+01
1.942800000000000011e+02,-6.419809735454816424e-02,1.542771705916317626e-01,1.013290441390710761e+01,-1.530796499785440357e-01,-1.631520004442216232e-01,1.559768445811504201e+01
1.942899999999999920e+02,-8.337091559586341794e-02,2.403865378089498350e-01,9.907636793887546034e+00,1.160281513987216767e-01,-1.014137225228042144e-01,1.492326484608559589e+01
1.943000000000000114e+02,-1.804122719711607203e-01,1.196417099451947408e-01,9.948024342022673494e+00,-1.778640180300891660e-02,-1.790104614467026289e-01,1.486863920182221577e+01
1.943100000000000023e+02,-2.010578128361895645e-01,8.613981861736988432e-02,9.844677625446065505e+00,-2.583723156251375719e-01,-1.661637042197305070e-01,1.540483657648654159e+01
1.943199999999999932e+02,-6.122657653113872112e-02,1.959772712638109815e-01,9.708943388186332513e+00,-8.231187457248134720e-02,-5.299265467743644042e-02,1.525598543722803768e+01
1.943300000000000125e+02,1.267004998622063006e-01,1.747635683207652557e-01,9.823434653955773754e+00,1.534574361882278248e-01,9.397870498812417595e-02,1.536337250975386937e+01
1.943400000000000034e+02,-4.981271602150921796e-02,2.534316304674112397e-01,9.795007296334437896e+00,-1.479601838840660655e-01,1.637686356271248478e-01,1.499047812104454458e+01
1.943499999999999943e+02,-6.764278860792327652e-02,9.842564414693200092e-02,9.888944994091669827e+00,9.256190761851480764e-02,-1.761159317461516438e-01,1.432475031942223609e+01
1.943600000000000136e+02,6.996362769517311397e-02,1.461826415948204727e-01,9.771082914845646172e+00,4.578487500918754782e-01,7.969764069009491192e-02,1.503769408774923022e+01
1.943700000000000045e+02,-8.615331681829263566e-02,2.443854547421700496e-01,9.781499307908568142e+00,-2.263347570876118597e-01,3.566694029052703274e-01,1.550216778362405634e+01
1.943799999999999955e+02,1.840565118106115561e-01,1.605876426153244607e-01,9.631827399747608709e+00,-4.622281490793685166e-02,-6.295764780135164503e-03,1.443631584861065598e+01
1.943899999999999864e+02,-2.616674882456411846e-02,-1.232011576265512609e-03,9.829717327129209536e+00,9.261162574125064717e-02,-7.163776307498269380e-02,1.445135287446612082e+01
