t,ax,ay,az,gx,gy,gz
1.671999999999999886e+02,-1.202003339205692245e-01,-1.954929235490874273e-01,9.820928502727140241e+00,-7.233381781171768221e-01,-3.867086256516061998e-02,3.814864983603116766e-01
1.672100000000000080e+02,5.794330929655631263e-02,6.612793301118490008e-02,9.720853020122460109e+00,-1.234976123705635587e-01,1.101681894460550953e-01,-1.057848634890062728e-01
1.672199999999999989e+02,7.668608673967203249e-02,3.656583268680894255e-02,9.944842930579447682e+00,3.298264885109899319e-02,1.150911675556687275e-01,-2.826242127195965348e-01
1.672299999999999898e+02,1.285692446479122508e-01,7.692466308233334056e-03,9.884223414620436188e+00,2.405441735585987506e-01,-8.382433200527796002e-02,1.556036372934812839e-01
1.672400000000000091e+02,-2.847904542827663088e-02,-7.815828208757906459e-02,9.634257064106893864e+00,-2.710705409501146801e-01,7.812837812959093353e-02,9.915492119561236661e-02
1.672500000000000000e+02,1.719414031740034224e-02,7.938895846691268465e-02,9.808087557254237865e+00,-7.098055630709396158e-02,1.803851584891025817e-01,-6.383796466327570363e-01
1.672599999999999909e+02,1.665358812430517421e-01,-9.896523203216392450e-02,9.906036635387268419e+00,1.834022029773147962e-04,-1.574761153332162877e-01,5.969095061395099933e-01
1.672700000000000102e+02,2.095288511118513497e-01,1.055225425308368159e-01,9.677844047039453557e+00,3.528499297764506326e-01,-1.377755591393607648e-01,-3.094418869873081235e-01
1.672800000000000011e+02,1.080370683178165925e-01,6.009394760810538028e-02,9.692983020261124238e+00,-3.373413615530723719e-01,2.869181995386678730e-01,5.054328247226809179e-01
1.672899999999999920e+02,-3.499582782360204786e-02,4.294562110405535094e-02,9.784788292386405573e+00,8.305352641781477141e-03,-9.266999479060054890e-02,7.839121864018477881e-01
1.673000000000000114e+02,7.255173636000776310e-04,-9.839892694251048400e-02,9.886421734460965283e+00,-8.611026879458673344e-02,8.669010137116472947e-02,-9.468895707024696518e-02
1.673100000000000023e+02,-1.781954217106991936e-02,-6.522688302117198023e-02,9.928559031958885228e+00,-1.670461466274955342e-01,9.625573146526530954e-02,7.209455302306169155e-01
1.673199999999999932e+02,7.056312338051301536e-02,-1.487039986658316437e-01,9.797477386210770689e+00,9.866178629398740518e-02,-1.467925281460096265e-01,2.292971944308311305e-01
1.673300000000000125e+02,-8.196567616334733686e-02,8.402183960166959009e-02,9.719740742299599390e+00,2.376451294656299340e-01,-1.503930514258939311e-01,-9.638149536618770830e-01
1.673400000000000034e+02,3.213331813140992560e-02,3.629970892240555035e-03,9.801164404208517311e+00,-2.680053720915444582e-01,3.242804988365833307e-01,-1.012405259161799131e+00
1.673499999999999943e+02,3.263783226195463710e-02,-5.374696224861052335e-02,9.693973831022530518e+00,-1.941011322549861806e-01,-2.775438270865247525e-01,-3.509013265548139859e-01
1.673600000000000136e+02,3.837505255981918384e-02,-1.363367889310230542e-02,9.842842156680022825e+00,-3.372746371808298949e-01,1.836717857648756946e-01,1.256553621843776725e-01
1.673700000000000045e+02,-1.022395290870985463e-01,1.049782307402028353e-01,9.738746721826899488e+00,-2.715593303876564710e-02,-2.166855307547841114e-01,-3.677447603562497003e-01
1.673799999999999955e+02,2.472033996266322434e-02,-1.139418221173226914e-01,9.655110490445336424e+00,1.847857602705012259e-02,-5.873759476228188753e-02,-2.530663588453868074e-01
1.673899999999999864e+02,1.769297746263174820e-01,-4.384325369635973940e-02,9.863968572869167062e+00,1.411130636651836967e-01,7.894017959774705592e-03,-2.797596981213554268e-03
1.674000000000000057e+02,-4.569525571435672368e-02,-1.579716967905089309e-01,9.728117344910552688e+00,-4.992801625308660590e-03,-2.149083745643520504e-01,-2.551828464356654114e-01
1.674099999999999966e+02,2.597377466574619237e-02,-1.052182796244590934e-01,9.676885364796472544e+00,6.759551023218388077e-03,-1.356859769228368762e-01,-5.232294199087135222e-01
1.674199999999999875e+02,-1.842033745785604804e-01,-2.508468128216532339e-02,9.842634775904707922e+00,3.070383560876631113e-01,-1.631555861318720879e-01,-2.978594329058404516e-02
1.674300000000000068e+02,2.528944168422003758e-02,1.084249549994174694e-01,9.672997123365014716e+00,1.605654298821428683e-01,9.397168144669616752e-02,-1.287822364744783732e+00
1.674399999999999977e+02,2.165693061708858294e-02,6.418004420200655591e-02,9.686457806238419010e+00,-4.102133248076863525e-01,4.942195099470907127e-02,1.931179921262528576e-01
1.674499999999999886e+02,1.164740772919895841e-02,9.895498705484363777e-02,9.704092892482258037e+00,1.500221470349858699e-01,1.207110044583393355e-02,-2.886509722272867506e-01
1.674600000000000080e+02,7.303645292521454557e-02,6.632635278375813292e-02,9.928487240667269731e+00,-1.067582025556862435e-01,-1.370743884005959645e-01,1.425286637644060661e-01
1.674699999999999989e+02,-2.790367340572240742e-02,-9.607722367587090417e-02,9.777905301430779517e+00,-5.578923488282554882e-02,-5.246877419032725670e-03,1.736152770640337628e-01
1.674799999999999898e+02,1.176401536413686499e-01,1.694746101861578091e-01,9.856001296164162540e+00,-1.925472852313514852e-02,1.305809943987715216e-01,-2.808675061923300853e-01
1.674900000000000091e+02,-8.831310532587847983e-02,7.419731517678300470e-02,9.904575282790061053e+00,-1.621804743635569812e-01,1.142644969352581419e-01,-2.077410563502254601e-02
1.675000000000000000e+02,1.443283532448617346e-01,1.796728218643470765e-01,9.782644383559270906e+00,1.283025083898110819e-01,1.296353042332235306e-01,-4.350637346346741263e-01
1.675099999999999909e+02,2.126550817198897408e-02,1.673840037714385831e-01,9.814365451323478595e+00,-3.367632099150723590e-01,-1.538568964483880419e-01,-1.673590919090651163e-01
1.675200000000000102e+02,-7.164041289092338075e-03,-9.138155581900894026e-03,9.868105357664186172e+00,1.926574413525339868e-01,1.309406218700857050e-01,1.881660411958177848e-01
1.675300000000000011e+02,-1.431800606039564383e-01,-4.890288909368271930e-02,9.818330907185503165e+00,2.601637498147599259e-01,7.341900642591553394e-02,1.586010104653262365e-01
1.675399999999999920e+02,-1.109698970347033353e-01,-2.234672508856753448e-01,9.789513210779727359e+00,6.832122912131698145e-02,-1.075198382810103326e-01,-5.141045480251125177e-01
1.675500000000000114e+02,3.508394744246410429e-02,1.662394238503070096e-02,9.829435032099631542e+00,1.115523301482255203e-01,9.250955133586537260e-02,-1.293531843827600558e-01
1.675600000000000023e+02,-7.168080980752114528e-02,-3.930276577701433474e-03,9.772391445892692374e+00,-3.266600681122533989e-01,-7.922521772239485283e-02,-3.390631460137131792e-01
1.675699999999999932e+02,9.950527466570456558e-02,-6.390807138509774221e-02,9.742968711848305929e+00,-2.477686618218364334e-01,-1.845846251760865642e-01,6.300504705210254741e-01
1.675800000000000125e+02,2.874357516960840062e-02,-4.989324627823067682e-02,9.771453485836778086e+00,1.623910101179713850e-02,1.786639779962076735e-01,-1.788887971072284089e-01
1.675900000000000034e+02,-1.425014335563883627e-01,5.191473007237983744e-02,9.759758053569592917e+00,-1.387048644148921317e-01,2.641306358592770964e-01,6.171500521967287003e-03
1.675999999999999943e+02,7.610866056087317588e-02,-1.884093813527910610e-01,9.889535083488059541e+00,-2.343389065804350746e-01,2.900488213638101678e-02,-6.825076865278830729e-01
1.676100000000000136e+02,-1.624110860182273811e-02,1.280780556970399775e-01,9.642487553928788202e+00,2.302412827948462359e-01,-2.385506866308214624e-01,1.492141031637799764e-01
1.676200000000000045e+02,-4.575996916190460881e-03,8.748391991679016488e-02,9.879437086283331837e+00,-8.034445463370093465e-02,2.503823730215766832e-02,3.535677648523836702e-01
1.676299999999999955e+02,1.044585604541465734e-01,-3.566108141184041319e-02,1.003942917949391322e+01,2.010343442651448820e-01,-3.758634827120413413e-01,7.573605907738893694e-02
1.676399999999999864e+02,-1.394299773001702880e-01,-7.600816462122583946e-03,9.825752456308377347e+00,-2.763097109298502385e-01,1.739314375838824922e-01,6.629685318459522803e-01
1.676500000000000057e+02,-1.124634439627607008e-01,3.175419764875971745e-02,9.802987957498512372e+00,-2.158652810615684925e-01,-1.580319255807914255e-02,-4.194189389235215004e-01
1.676599999999999966e+02,3.255795308747585354e-02,8.149265451248066672e-02,9.731965515892397889e+00,1.429564849221683642e-01,-5.946314272254802497e-02,-1.327490704258416920e-01
1.676699999999999875e+02,-1.698769306458312311e-01,2.028779040580489801e-01,9.649782023586737978e+00,-5.352710546597643990e-03,2.629350703220992291e-01,1.367152535130002622e-01
1.676800000000000068e+02,-6.071476766273119913e-02,-5.261415410265657400e-02,9.774215201166290612e+00,2.092854287056361562e-01,-3.201035882114044995e-01,-1.542772023648104340e-01
1.676899999999999977e+02,9.784597999849344030e-02,1.363947032700235373e-01,9.804175161893699197e+00,4.250475500740665685e-02,-2.980753644038109940e-01,-1.370192134985026046e-02
1.676999999999999886e+02,-1.087291134688955947e-02,-2.215774276429982592e-02,9.623307419027945286e+00,3.326153715506486308e-01,-4.538104541137333303e-02,1.874325676028488763e-01
1.677100000000000080e+02,-1.374430106846961930e-01,-3.979591477013352807e-02,9.727752204539443781e+00,2.297916712224666869e-01,2.107591135785930325e-01,4.244220827391993467e-01
1.677199999999999989e+02,1.890976305471732052e-02,-2.579889299558743229e-02,9.708739630012425792e+00,1.017135540171282271e-01,2.749647268131773514e-01,2.394136876076603249e-01
1.677299999999999898e+02,-4.048836100592911186e-02,1.082935725477979089e-01,9.909001064817756443e+00,-2.070746352877107788e-01,1.934155045232420211e-01,-1.588441601093895095e-01
1.677400000000000091e+02,-7.022909050377665330e-02,-5.720869270053383776e-02,9.852653140025980250e+00,-1.998783086835277389e-01,-1.338892870116797917e-01,-3.047630696454774468e-01
1.677500000000000000e+02,3.556458074376815381e-01,1.067200209007900143e-02,9.784770747837974625e+00,-3.439803508788292774e-01,3.276505304695807030e-01,-4.275455745419094455e-01
1.677599999999999909e+02,5.748278843813402900e-02,-5.130439837751508275e-02,9.835827274480489990e+00,1.426211707776003090e-01,1.660735532678311588e-01,5.322254333888301048e-01
1.677700000000000102e+02,-2.834620453258333145e-02,-4.284795406263962325e-02,9.788514927363003437e+00,-5.134704107840495912e-02,-2.585101145027807745e-01,4.180111279760420628e-01
1.677800000000000011e+02,8.983055138568968312e-02,1.350715232552713863e-01,9.961056682445114774e+00,-3.634969280071040920e-01,-2.607410894806615476e-01,3.354665614617184932e-01
1.677899999999999920e+02,-2.909867411001344079e-02,-1.065490099776613070e-03,9.832806050279758736e+00,-4.439669844026153389e-02,2.611000528021482081e-01,6.120591558028207757e-01
1.678000000000000114e+02,-5.181357692550286886e-02,-6.660810910616225822e-02,9.793342117059502527e+00,-1.664447312316981453e-02,-2.474758078546994422e-01,7.182244330056284376e-01
1.678100000000000023e+02,2.994460040547594626e-02,-4.340429803551892202e-02,9.725202509723942512e+00,-3.992917433475462463e-02,-1.545191140748816971e-01,1.356784656572752323e-01
1.678199999999999932e+02,5.086900801902082686e-02,2.793452858310871076e-02,9.898673371664811427e+00,-2.303720762172994929e-02,1.855010417821546798e-01,3.526086447308921512e-01
1.678300000000000125e+02,9.257446007025706136e-02,-5.224271026486241969e-03,9.522432076304886195e+00,3.157620190157007234e-01,5.171350990770316042e-02,3.970509592469386728e-01
1.678400000000000034e+02,1.423665580242390594e-01,2.443709364140879740e-04,9.673691841983076856e+00,-2.419595210973187957e-02,2.243970239415852275e-01,-3.615287698750112022e-01
1.678499999999999943e+02,1.187505520512655288e-01,-2.988609390352294989e-02,9.967492774233745578e+00,-2.983947800996717414e-01,-1.187974102368082908e-02,-2.003360488099386327e-01
1.678600000000000136e+02,8.565701137640473195e-02,1.044049551735321962e-01,9.600848171992755198e+00,-5.322282638972104796e-02,2.165794603197020440e-01,-6.691891218722822998e-03
1.678700000000000045e+02,9.592674586726858410e-02,5.765136958356201907e-02,9.725260333744923713e+00,1.050772093550340486e-01,-4.212389969702130532e-01,-3.601000160411207962e-01
1.678799999999999955e+02,1.184700008269008037e-01,-2.246339905421240735e-02,9.865768990937208827e+00,-1.564780993356967020e-01,-5.712731869802505774e-02,1.058177339633804115e+00
1.678899999999999864e+02,7.098259885272638348e-02,1.299492961239753080e-02,9.837126480359446035e+00,7.980407965647376423e-02,8.726964210418801382e-02,-5.030673038703967759e-01
1.679000000000000057e+02,-1.585400636939041652e-01,-8.147177524976202678e-02,9.775599432302067626e+00,5.113431889624813799e-03,2.025112297439527753e-01,5.507034883228858479e-01
1.679099999999999966e+02,4.976448118633926970e-02,-2.404109854612326153e-02,9.747561067305262839e+00,2.160802791646491416e-01,-2.066944551878878988e-01,-1.329512049167113741e+00
1.679199999999999875e+02,1.376977125548826120e-01,-1.023629005910292877e-01,9.703613155518693745e+00,1.494108613610006797e-01,6.618407077823516838e-02,-2.748816314597282151e+00
1.679300000000000068e+02,-8.028191729169931179e-02,-3.043929521546805128e-02,9.838142645095491190e+00,-9.106526067799450286e-02,1.309355953059303593e-02,-3.800947580364113509e+00
1.679399999999999977e+02,-3.920551602514820572e-02,-7.701369605279835551e-02,9.747719763894348688e+00,-7.693807721205658812e-02,-1.444251021929162937e-01,-6.018164766385536879e+00
1.679499999999999886e+02,-6.010294181646917352e-03,-1.074222159155539813e-01,9.568357524980937612e+00,-1.871468011399528009e-01,1.820902392393366487e-01,-7.191926211987080819e+00
1.679600000000000080e+02,1.901040614505413590e-02,-8.571143148413086499e-02,9.683113399788306097e+00,2.098555359933153286e-02,5.618169502515520108e-02,-9.235805792491301958e+00
1.679699999999999989e+02,-5.551012746191685138e-02,-8.680770405310561655e-02,9.864808489966334193e+00,-1.870556003810858875e-02,8.292280261292783380e-03,-1.027631879633308642e+01
1.679799999999999898e+02,5.726211434034541095e-03,-2.429585798360640869e-02,9.952232300879073179e+00,-3.514557183653734818e-01,-2.253127935461128328e-01,-1.111947600149263060e+01
1.679900000000000091e+02,5.132522896942462443e-02,-7.214295946739587850e-02,9.810958691802900589e+00,-1.058242774535272518e-01,2.203288293911128681e-01,-1.286330150592390353e+01
