t,ax,ay,az,gx,gy,gz
2.928000000000000114e+02,4.320734604707793247e-02,-9.216873775041205252e-02,9.769506976112447560e+00,-8.305129928149823995e-04,-3.098752960031953552e-01,-8.707339095978355870e-01
2.928100000000000023e+02,-2.296406267317523467e-02,-1.159376529170502712e-01,9.690689207309828745e+00,1.890142152797659458e-01,1.746658383576502743e-02,8.332903341791214613e-01
2.928199999999999932e+02,-7.841919097825421348e-02,5.869898673348186713e-02,9.715075146973662257e+00,-1.469930018376487983e-03,-9.664783455468006768e-02,-2.236374108949333930e-02
2.928299999999999841e+02,1.254159460157103501e-01,-1.445335375003982681e-01,9.919314972030491617e+00,2.030478741301472434e-01,-3.006621245127080733e-01,6.624733492405714408e-01
2.928399999999999750e+02,1.007219997340574463e-01,2.863265357878952422e-02,9.807418743838507424e+00,-2.353712029917801873e-01,-5.500509473798290139e-02,-1.801912992723980200e-01
2.928500000000000227e+02,-1.371898419900188237e-01,-6.982250800066595875e-02,9.919641681970999159e+00,-8.242517817011749126e-02,3.187489407105590367e-01,-4.811125691873724408e-01
2.928600000000000136e+02,7.624667851941349661e-02,-6.929194867849790274e-02,9.776742665171191504e+00,1.005511872766532283e-01,1.379984279234984512e-01,8.084796143826161741e-02
2.928700000000000045e+02,1.701834391008173047e-02,-1.889867602820080039e-01,9.942500571432319134e+00,2.884174136579961689e-01,5.025020645308041906e-02,-4.953850757988294273e-02
2.928799999999999955e+02,2.358349208053530863e-02,-1.018014385776383653e-02,9.833458883106731108e+00,-5.493227720967411298e-02,2.740386246361233291e-01,4.617070458603454441e-01
2.928899999999999864e+02,1.555546307156114305e-01,-7.469613797317874171e-02,9.831928472373844485e+00,-1.577321070130924957e-02,-8.778966986054020927e-02,1.118363065427309788e+00
2.928999999999999773e+02,1.548953864325193844e-02,-2.168259804948840380e-02,9.884850015996041961e+00,2.436494262356305729e-01,-9.266468313018245972e-02,-2.125455225511460877e-01
2.929100000000000250e+02,7.141974053763826269e-02,-2.049785292821618143e-02,9.804267665297443202e+00,2.066771188255397684e-01,4.627409447510711371e-01,-1.034637689032509300e+00
2.929200000000000159e+02,2.140379447212927000e-02,1.729111993073053077e-01,9.720260652634660659e+00,2.630652187959645755e-02,1.248587613432456805e-01,1.158909025324298125e-01
2.929300000000000068e+02,2.195261375028324108e-02,-9.159483303474284799e-02,9.664296412702539030e+00,-1.552264640774054238e-01,-4.380612601136669310e-02,-1.578072994453880509e-02
2.929399999999999977e+02,-9.253356713630755959e-02,5.040414048130478775e-02,9.976148079524197243e+00,3.105322474012077172e-01,6.386560348826852973e-02,3.256792352688456238e-02
2.929499999999999886e+02,2.453897095225320568e-01,-3.447492990415498143e-02,9.794357702916089536e+00,-2.313164079498851167e-01,-1.130462060738745556e-01,-1.974598026398850514e-01
2.929599999999999795e+02,-3.075582788919480337e-01,5.833008040253924442e-02,9.733570242202365108e+00,2.619091932871923656e-01,-3.225969815725109324e-01,-5.922845048960176939e-01
2.929700000000000273e+02,-7.255704816476649111e-02,-1.848509257983133036e-02,9.791395318714487317e+00,-1.699964126834580813e-01,-3.430162705228086834e-02,-7.847984649455982398e-01
2.929800000000000182e+02,-4.887530637727682814e-02,1.776922395556281564e-01,9.703761582058207935e+00,-7.898267795996660734e-02,2.678764943671582133e-01,1.015549476656463446e+00
2.929900000000000091e+02,9.084127908081175706e-02,-5.959745037155339369e-03,9.855052399876992553e+00,-1.249402597674081766e-01,7.163039898743332745e-02,-5.996248242925774630e-01
2.930000000000000000e+02,-1.410973135285168434e-01,1.012303411270229665e-02,9.838129243471726681e+00,2.136843514145636280e-01,-1.527846580640110918e-01,9.252930363975027106e-01
2.930099999999999909e+02,-1.755902366945623003e-02,1.188803647917101580e-01,9.860883626452858763e+00,1.082427294402818901e-01,5.112035078725717802e-02,3.550354821783019976e-01
2.930199999999999818e+02,7.868880137776569639e-02,-3.594135488469997475e-02,9.780634477654164272e+00,-5.868625648790102428e-02,-1.176316246472947080e-01,-2.442377647139209462e-01
2.930299999999999727e+02,-1.217872568549815959e-01,1.031903282365980723e-01,9.964206232623046944e+00,3.073576647249173233e-01,-3.463278323898227179e-02,6.347473470096121062e-01
2.930400000000000205e+02,-1.369594662018880186e-02,1.193740406874106985e-01,9.869849682342032082e+00,-1.398651654663854715e-01,2.239329810320900838e-01,-9.014724454709690526e-01
2.930500000000000114e+02,-1.680586641414012414e-02,-5.545065493877263801e-02,9.952933267976142417e+00,-3.410542341318669179e-01,1.071304907557646680e-01,-7.938855006261440472e-01
2.930600000000000023e+02,-5.979822649799326068e-02,8.051985147940546317e-02,9.724892457016798275e+00,-1.989325516981812481e-01,-4.456251283351717746e-02,-2.651512652045129870e-01
2.930699999999999932e+02,3.674523966726402774e-03,-9.598722895059735860e-02,9.933525017867307128e+00,-2.836253887596726017e-02,2.075950151035571012e-01,-6.007517862282203414e-01
2.930799999999999841e+02,-4.255300707281032407e-02,2.102387679993512198e-02,9.756881357077380912e+00,-1.272918206458837076e-01,1.098060062237339422e-02,-9.954686542626616230e-01
2.930899999999999750e+02,9.676263885936561837e-02,-6.555773294574236687e-02,9.814005341591734322e+00,-1.299859683945556732e-01,1.767458604554059676e-01,4.099984798788651186e-01
2.931000000000000227e+02,5.293751279166550305e-02,-6.754693747802129229e-03,9.829589285348122374e+00,1.622410649110479254e-04,9.408354387377898531e-02,6.634300180809737935e-02
2.931100000000000136e+02,-1.843454041254708603e-02,6.856611006954417553e-02,9.791438728927898794e+00,-3.536574987381226887e-01,-4.043313932968450181e-02,-6.602086322312998856e-01
2.931200000000000045e+02,6.588611467083134617e-03,1.125956073194495782e-01,9.912089211327408833e+00,9.597565788768984418e-02,-1.204196216700494787e-01,-4.004948189560777472e-01
2.931299999999999955e+02,-3.890688767392920522e-02,-2.333934115726159220e-01,9.858567831991075892e+00,-6.422464541241516833e-02,-2.933763420274443923e-01,-3.855665047362679676e-01
2.931399999999999864e+02,1.336767009654972194e-01,-8.719896901090175290e-02,9.616214856691563284e+00,1.036730960492303205e-01,-1.445625011377563995e-01,3.104234131180085843e-01
2.931499999999999773e+02,4.522207766654843392e-02,1.356293194797586199e-01,9.984608451982103006e+00,-1.543427678865895158e-01,4.009907325027193825e-01,8.075984768971326000e-01
2.931600000000000250e+02,-1.399640704330175345e-02,1.322399974094866361e-05,9.902582254798163675e+00,6.775604831807482964e-02,-3.322823527651989628e-01,2.852975496101413655e-01
2.931700000000000159e+02,4.385640755957631587e-02,-3.170839014562397678e-03,9.967900129047601254e+00,2.448421078968068265e-01,1.077421785984979119e-01,-1.826104042397359573e-01
2.931800000000000068e+02,1.888779783764972242e-01,9.927696808503451431e-02,9.801843542956966360e+00,1.457066250023989207e-01,1.586279424352200415e-02,2.420504281587269879e-01
2.931899999999999977e+02,-6.854636317066606366e-02,-2.450479883435934259e-01,9.786958104467217368e+00,-3.365482382908671077e-01,-2.457208202793579044e-01,-6.322723056258032492e-02
2.931999999999999886e+02,8.845550050637124295e-02,-9.958851225989194533e-02,9.758505540883817275e+00,3.189810443195892908e-01,2.624349040341835138e-01,3.191729835316546304e-01
2.932099999999999795e+02,4.142355086355689608e-02,9.899235480146280353e-02,9.812030898637930321e+00,4.613991202471731667e-02,-6.691737636775162146e-02,9.713830755885244361e-01
2.932200000000000273e+02,-2.161337573376404669e-02,-1.680769168614796583e-01,9.873265221069841502e+00,-1.185253074010998581e-01,-3.308537488107345936e-01,2.290345570105029385e-02
2.932300000000000182e+02,-7.296255742245161269e-02,3.584711845424316898e-03,9.803473854052962011e+00,-1.226406727592177504e-01,4.503820814225477642e-01,1.753356007969712471e-01
2.932400000000000091e+02,8.591717726737768679e-02,-2.061537560924046053e-01,9.747366674114838148e+00,3.284239467128389350e-02,3.095821639957312410e-01,-1.131692762787723794e+00
2.932500000000000000e+02,2.907849921240410196e-02,-5.390965789935340396e-02,9.890115684848257871e+00,-1.601358720029857352e-01,-2.374028618274769686e-01,2.282462895222161225e-01
2.932599999999999909e+02,1.443800714439614219e-01,1.127545756253962445e-01,9.793318200299106380e+00,-6.495854185283075032e-03,-1.202635799295906499e-01,-4.833729903083648360e-01
2.932699999999999818e+02,1.167969522273472616e-01,-1.860634709984745339e-01,9.846444453810875075e+00,3.563628825887081852e-01,-5.509412064600553022e-02,1.323763429670854197e-01
2.932799999999999727e+02,3.004482839259974003e-02,-3.195723633729508073e-02,9.679211529460324925e+00,-3.672369511973069267e-01,-2.221138167708205102e-01,3.269143193416546578e-01
2.932900000000000205e+02,-7.220111875796321466e-02,8.872184684761316720e-02,9.707102222642509659e+00,8.874632804506334127e-02,1.416814104318670220e-01,-2.749060028716343584e-01
2.933000000000000114e+02,2.054307116003031841e-01,-8.631702891847631287e-02,9.733175635152937488e+00,2.195216315654838213e-01,-3.413845830525321645e-01,1.182641789842057561e-01
2.933100000000000023e+02,-6.192929210273689228e-02,3.282777512032904882e-02,9.799597554883598960e+00,-2.999483746815830368e-02,-1.891204978393268288e-01,1.118908919429670412e+00
2.933199999999999932e+02,8.305523714809273650e-02,1.815289019253139569e-01,9.733055982456633615e+00,4.378699852296993184e-02,-3.561331270683895656e-01,-2.710809329959855130e-01
2.933299999999999841e+02,-1.771745323922671589e-01,7.268507209490895904e-02,9.806171712568128029e+00,4.811528658965291694e-02,-1.190102931506939604e-01,-1.593596456019081009e-01
2.933399999999999750e+02,1.570661543384741787e-01,2.114374384593368725e-02,9.745084570269938240e+00,1.280742426904127595e-01,7.178091353459109536e-02,-6.850032323577172344e-02
2.933500000000000227e+02,-2.033891956969193782e-01,1.604915767655821224e-01,1.001179306725540741e+01,6.102761588005983784e-02,-2.549546812143492214e-01,2.466137062009331193e-01
2.933600000000000136e+02,-3.135363648646909140e-02,1.463007005948033581e-02,9.880315718437438832e+00,1.811421561479161502e-01,1.086258685048280270e-02,-1.520371107992417870e-01
2.933700000000000045e+02,-1.062156122526754926e-01,-1.336468058535261738e-02,9.786857069022474320e+00,1.397309933451688913e-01,-2.964299426487755906e-01,8.581396197999948683e-01
2.933799999999999955e+02,1.395510388218632880e-01,-1.055260386707591175e-01,9.928052790146530526e+00,1.655394453207627847e-01,1.639051191395274054e-01,4.398989526942106987e-01
2.933899999999999864e+02,-7.421721930540489676e-02,8.496227601596374746e-02,9.845713131366323978e+00,3.285067782037475598e-02,3.081948901133191310e-02,8.466326446400194994e-02
2.933999999999999773e+02,5.287983641607672120e-02,2.042948489752274832e-01,9.806122387706874832e+00,-2.006889821018918441e-01,-2.689676562346840147e-02,-3.604236257911472285e-01
2.934100000000000250e+02,2.669602417893005009e-02,-2.135984924310004862e-01,9.716092350344549544e+00,-2.926582633828987978e-01,1.676522036282534767e-01,2.016792758844775102e-01
2.934200000000000159e+02,-1.445041370579585038e-01,-8.411257304140951074e-02,9.818755109574787809e+00,9.426476245331190384e-02,1.028381449558370547e-01,3.650971648999273844e-01
2.934300000000000068e+02,1.028971909968826454e-01,-8.442631142758021470e-03,9.795663670874937168e+00,-6.066882822980849271e-02,-3.920505455701998182e-02,-1.719427983051770303e-02
2.934399999999999977e+02,-1.598195822382116136e-03,-8.744033511458489116e-02,9.958488083808466840e+00,-7.601330500238671906e-02,1.443482729590184199e-01,-2.836909929271616004e-01
2.934499999999999886e+02,1.507644007791725527e-01,7.986177872757538321e-02,9.656998402015114280e+00,2.963414378005773883e-02,2.530366075944464055e-01,4.641963223128139360e-01
2.934599999999999795e+02,6.134949357153213212e-02,6.183277327691665687e-02,9.798097146979491967e+00,-1.346383798383034847e-01,1.804959492018818126e-02,2.825484981796843598e-01
2.934700000000000273e+02,-7.600309084815615179e-02,4.037625891612459106e-02,9.735570867316221566e+00,-6.212387110288709879e-02,1.768427767131369177e-01,2.624567875116725069e-01
2.934800000000000182e+02,-2.011323801130700598e-02,1.836748037582849324e-01,9.770578457012931040e+00,2.031874505722978397e-01,-3.226847274750451189e-01,-1.932532813140116212e-01
2.934900000000000091e+02,-2.296430013769730841e-02,3.237266465786613201e-02,9.727740672762712038e+00,-5.658844466493778008e-02,-1.837410513079534014e-01,4.906907552771981249e-03
2.935000000000000000e+02,7.779962454884063738e-02,-5.375107329849768134e-02,9.801939370358827119e+00,-1.085543581656526479e-01,-3.720665883096503368e-01,2.051233576265473202e-01
2.935099999999999909e+02,7.451974635758999710e-02,-1.149430189252997336e-01,9.672736315473954960e+00,-1.901388032018669350e-02,8.026844842202732200e-02,-8.187404951852720325e-01
2.935199999999999818e+02,-6.732048502892638842e-02,4.774544499875389703e-02,9.787057839824674588e+00,2.377828923694143559e-01,-1.574456237295760938e-02,7.655370973372511711e-01
2.935299999999999727e+02,9.471657354585354127e-02,-1.122228528541127091e-01,9.897924254384456333e+00,-1.919257944054369724e-01,4.300676522734978025e-02,-8.218146081600667952e-01
2.935400000000000205e+02,4.065939129388179696e-02,7.417538591841395246e-02,9.827267956283725070e+00,3.382691767540455530e-01,1.205638100167084475e-01,-3.111597174210633532e-01
2.935500000000000114e+02,6.693918197274806303e-02,-4.786521485740985460e-02,9.835350044614923348e+00,-3.072259000404120241e-02,-4.055737797872249750e-01,4.078940313190758116e-01
2.935600000000000023e+02,5.178290546920915477e-02,-2.042645601859567894e-01,9.890915069030032925e+00,1.528530222170496888e-01,1.078013879569138106e-01,3.102544999243279089e-01
2.935699999999999932e+02,8.290195638708655612e-02,1.015351132948779239e-01,9.881078223399942573e+00,1.208948272729925277e-01,6.728506103638354219e-02,-5.444909804752897653e-01
2.935799999999999841e+02,-9.328118064103031737e-02,5.695845080583749470e-02,9.718082211079348554e+00,1.219874806466620110e-01,1.830216937936301191e-01,3.179951860139917930e-01
2.935899999999999750e+02,1.900858233931888158e-02,7.982748599167285852e-02,9.875262705217400239e+00,2.106275845136059977e-01,-3.534145281713082370e-02,7.322879349611325361e-01
