t,ax,ay,az,gx,gy,gz
2.711999999999999886e+02,1.205707472883335574e-01,-1.629526799469082077e-01,9.588294914512959011e+00,-2.287083787825900660e-01,-2.717327133200548861e-01,-1.663641308155647536e-01
2.712099999999999795e+02,-1.526370411202541445e-02,-2.751213700170143661e-01,9.862728064773570225e+00,1.971680368383784687e-01,-3.288444962451950726e-01,-5.843823806266693621e-01
2.712200000000000273e+02,4.770673437093948116e-02,5.329090696467136956e-02,9.858341848418652020e+00,-3.136867987358551435e-01,-3.036515287923579054e-01,2.143479637674375327e-02
2.712300000000000182e+02,7.106968339888025676e-02,-4.639630803750435101e-02,9.803011278691041497e+00,1.248911985530321983e-01,-4.184677574625100815e-02,-3.349824205515632425e-01
2.712400000000000091e+02,9.349095836332435572e-02,7.977589868016701780e-02,9.803016757484588339e+00,2.547489615195039914e-01,-3.967770344787081571e-01,7.393329585634805801e-01
2.712500000000000000e+02,-2.016310402185892553e-02,-2.548159274786733763e-01,9.801335964481737051e+00,1.732204645272877874e-01,-2.258611765229666946e-01,-4.472695594645791084e-02
2.712599999999999909e+02,1.281723539594864236e-01,1.165911758535100456e-01,9.851107957976610763e+00,-2.108903068636664921e-02,-2.238703951878314724e-01,-2.340065172669180960e-01
2.712699999999999818e+02,-1.422458069303688122e-01,-1.016894484950023499e-02,9.813274727258679775e+00,2.634759154334669895e-01,1.065173753870419238e-01,9.889945511265785250e-01
2.712799999999999727e+02,-1.129488142842377113e-01,2.089551933246918125e-01,9.885823167092187447e+00,-8.019248052283196870e-02,-1.698104775804471223e-01,-5.468216317995321374e-01
2.712900000000000205e+02,4.806605034151004846e-02,-3.488258334537629635e-04,9.866573177820292528e+00,-8.272773815547944387e-02,5.069227222758618256e-02,4.208384881083922224e-02
2.713000000000000114e+02,4.542900533101032479e-02,5.352743827768907670e-02,9.776240377248967661e+00,2.699689998750787745e-01,7.063045845689075626e-03,3.383542599328278611e-01
2.713100000000000023e+02,-2.349473311986447280e-02,-3.779606885244318759e-02,9.828631587289711646e+00,-2.343295771190521126e-01,2.195698261490774128e-01,-1.624701011186132360e-01
2.713199999999999932e+02,-4.422838959616578330e-02,-4.550886922135870954e-02,9.845351298613786994e+00,-1.235362835089526129e-01,2.596314620583659583e-01,-1.665421587092457412e-01
2.713299999999999841e+02,-4.289510596889833244e-02,2.930013521579806837e-02,9.627292941493326595e+00,-8.920248230504754239e-02,-2.161136452939514396e-01,2.570097972576884660e-01
2.713399999999999750e+02,-8.990486738412317713e-02,-3.088609935607018048e-02,9.795330472852233683e+00,8.632897508899835259e-02,1.243930927102194633e-01,-9.002565719259029153e-01
2.713500000000000227e+02,-4.494007610311572497e-03,-5.916480251905760490e-02,9.746546499738306224e+00,1.629308687320537019e-01,1.468576980285688782e-01,-2.328310626276232642e-01
2.713600000000000136e+02,-1.556047968849631757e-01,3.697801288324760460e-02,9.870431175865370221e+00,-1.891095905994632509e-01,-6.415903750953302898e-02,-1.314699906905019214e-02
2.713700000000000045e+02,1.132013023421754583e-01,-5.758182247183262631e-02,9.694676417787055911e+00,-4.047922944382448263e-02,2.532491243873370712e-02,-3.394293397342934560e-02
2.713799999999999955e+02,3.818751771815286078e-02,4.023818322882580234e-02,9.823524659398614745e+00,6.282600595091990259e-02,1.337942083514487290e-01,-2.257646097374903793e-01
2.713899999999999864e+02,1.293767923401250575e-01,-1.571110826808137517e-01,9.791044272573065754e+00,9.128717805768581106e-02,1.224195799614495039e-01,4.084279744149939551e-01
2.713999999999999773e+02,1.610438407636641950e-02,9.097235748399400568e-04,9.615869356754183528e+00,5.098963391801228928e-01,-1.687851689851614656e-01,9.813976890523801178e-01
2.714100000000000250e+02,-3.717423498483479836e-03,-1.900558762341739844e-02,9.918241305095651938e+00,3.406689116222440528e-01,-9.798067139413918492e-02,-3.590453206893930438e-01
2.714200000000000159e+02,1.254445192762577294e-02,-2.243517677429542889e-01,9.850922793147926626e+00,-8.595934737809467208e-02,-1.002757143308244808e-01,-1.665912109131161348e-02
2.714300000000000068e+02,-6.995311882544853754e-02,-1.227551619048100479e-01,9.724147539875977131e+00,-5.636670262252390512e-02,-1.568010875990377417e-01,-1.102409364326194519e-01
2.714399999999999977e+02,-1.243450801924478183e-01,-2.562608343571927683e-01,9.834362929956018462e+00,1.104208032737414302e-01,3.699207542593412334e-01,2.122187533556599837e-01
2.714499999999999886e+02,-9.845076887256973275e-02,1.019186733912309621e-02,9.833716600164700949e+00,2.097811079046874028e-01,2.021951510630307924e-01,5.568325593729601675e-01
2.714599999999999795e+02,-4.263025181792531176e-02,-7.972081828471067055e-02,9.698182341040762822e+00,7.920004173973954620e-02,1.116254451827791289e-01,1.321490066370164529e-01
2.714700000000000273e+02,-8.833486046579459849e-02,-3.228313173949381304e-02,9.732633541715276948e+00,5.795153002205660764e-02,-5.384542697591755689e-02,2.906486788241370300e-01
2.714800000000000182e+02,1.348718203310140529e-01,1.331174816366048064e-01,9.701175245431015171e+00,1.902341738763418666e-01,5.011369258025782925e-03,2.159774138083685735e-01
2.714900000000000091e+02,-7.053696049451256556e-02,-6.401768752518693581e-05,9.618555398860458183e+00,8.439239623453659300e-02,2.994005770900162178e-01,-9.808501763231638471e-01
2.715000000000000000e+02,3.936251091857943113e-02,2.919033313861861892e-02,9.938236904068885380e+00,-1.250269937322815716e-01,1.120313080420468205e-01,7.237491243007052599e-01
2.715099999999999909e+02,5.843608316205889386e-02,-4.837908981204952497e-02,1.002998825007430739e+01,4.491189365975465503e-02,-2.615045514687287520e-01,-1.023127753719991206e-01
2.715199999999999818e+02,1.237438552564680966e-01,-7.345385918803316871e-02,9.757334910876618750e+00,1.293317654901353086e-01,2.670080046574001553e-01,-5.114599954405082416e-01
2.715299999999999727e+02,6.816618422576785352e-02,-1.436422292367110776e-01,9.730784927380142335e+00,1.757418840400739590e-01,-5.272179925083181340e-02,-3.570187520338909959e-01
2.715400000000000205e+02,-1.734622892343519115e-02,7.215787057043930586e-02,9.727908781959961004e+00,3.583017124494650152e-02,-3.165366939348311370e-01,1.606503353142617330e-01
2.715500000000000114e+02,1.705970978277782379e-01,1.544148241690946888e-01,9.879474872439567790e+00,1.959735523198897766e-01,-5.537684614749344147e-02,2.814262806931903671e-01
2.715600000000000023e+02,-1.244011584173489449e-01,1.170856428123104309e-01,9.916206891120793898e+00,-1.530468978002939330e-02,-1.518100946739306956e-01,2.774577169086470119e-01
2.715699999999999932e+02,-9.400765619359724434e-02,-1.187709746425395230e-01,9.889791090585852373e+00,-2.722539377295192797e-01,-2.699393153854027227e-01,6.557745237514740755e-02
2.715799999999999841e+02,2.199211148959122342e-02,1.256154070337800466e-01,9.892461250947942375e+00,-2.191091364133750108e-02,-1.319627212301661412e-01,-5.515967492043443582e-02
2.715899999999999750e+02,8.587785416985415504e-03,-1.616391167503956547e-02,9.896854135677333630e+00,-4.649588145199565203e-01,2.686616200421644562e-02,-5.324786668389672739e-01
2.716000000000000227e+02,8.171261395614118350e-02,1.471435831118588500e-01,9.758776109921441844e+00,9.136097510082305528e-02,-4.008471833655915528e-01,1.953888674466152664e-01
2.716100000000000136e+02,1.605519383122771052e-02,3.854799908311853929e-02,9.653060378957658116e+00,-1.821951725479172834e-01,5.457698520299669731e-02,5.568646331868850607e-01
2.716200000000000045e+02,3.690347090314865380e-02,3.138303838205196844e-02,9.875643267143290771e+00,-3.470238185343854642e-01,-1.109956326305324564e-01,-3.220531209478978418e-01
2.716299999999999955e+02,9.961663543986443159e-02,3.405971469242915356e-02,9.805448443009797899e+00,-2.733116267905226215e-01,1.665199237407248012e-01,-4.796066927687951675e-02
2.716399999999999864e+02,1.407735995816667730e-02,-1.693883299457717151e-01,9.856097501678771522e+00,8.530271462741466360e-02,8.356400951230530394e-02,-9.581575739017355042e-01
2.716499999999999773e+02,6.795939870318221110e-02,-1.263445149983004889e-01,9.792021451187940428e+00,-2.288003768581735597e-01,-3.162875111327030919e-01,-5.011210864819454214e-01
2.716600000000000250e+02,-7.556409030768439228e-02,-6.261210399104291668e-02,9.844298880014957120e+00,-1.226373982017925218e-01,-3.813091841247628899e-02,2.433618956451126525e-01
2.716700000000000159e+02,-6.896687017269430287e-02,-3.644417159397864842e-02,9.858333037170162072e+00,4.674753687870866758e-02,3.090669072126838723e-01,-5.213131256700682253e-02
2.716800000000000068e+02,8.810347536387858058e-02,1.170340697409081795e-02,9.805712864429747100e+00,-1.882361218634978073e-01,-1.594710799474806651e-01,3.898836193889808066e-01
2.716899999999999977e+02,1.210224753772510403e-02,-4.625446781897369491e-02,1.000807265749547526e+01,5.318489866750687745e-02,1.431720238642442966e-01,-3.626883441920222273e-01
2.716999999999999886e+02,1.692942247689249377e-02,-5.058697726288068769e-02,9.806283601103279679e+00,2.165783490980190684e-01,1.160047147326133121e-01,3.390147517411924993e-01
2.717099999999999795e+02,-6.935078253421025907e-02,1.239765838322546138e-01,9.706187018927643351e+00,-4.836608313642736662e-02,1.141396922582766163e-02,-1.863775739951827326e-01
2.717200000000000273e+02,-4.086902143489574979e-02,1.351436089123878581e-01,9.808983632455793966e+00,2.435213460762697402e-02,-1.412539129555360484e-01,-3.137061035884940452e-01
2.717300000000000182e+02,2.867047128859800953e-02,6.053543178690692916e-02,9.765782879561042407e+00,3.596538655271106499e-01,1.711763537647895961e-01,-6.442378791399622218e-01
2.717400000000000091e+02,-3.010995214695193559e-02,-7.246037375257305402e-02,9.683995555678421852e+00,6.485611713299169190e-02,5.953632326909387429e-02,3.480484369022827651e-01
2.717500000000000000e+02,-8.619461864213050217e-02,4.190094397391168346e-02,9.979640173157310556e+00,6.658522362115175397e-02,-2.244173913474483695e-01,-6.100039235632804813e-01
2.717599999999999909e+02,-8.503223648181185146e-02,1.280471345633325264e-01,9.848064377393853874e+00,4.399316852600638761e-01,-1.860860471586724962e-01,1.879063021353581386e-01
2.717699999999999818e+02,-6.373315185492832435e-02,-2.459240240191230831e-02,9.737347418268411658e+00,2.019476076946272181e-02,2.131870965641151638e-01,-9.512598162856297224e-01
2.717799999999999727e+02,-3.389436170596920456e-02,1.342503072837630262e-01,9.851912238796257881e+00,1.916102839903631450e-02,-1.986224472280413711e-02,-2.449492812470625835e-02
2.717900000000000205e+02,-2.765153631926253394e-02,1.935503343317963587e-01,9.911325340042475673e+00,1.787391882246102959e-01,-2.913532973180287811e-01,1.035221305686492510e+00
2.718000000000000114e+02,1.568376755247667953e-01,9.758389925672689147e-02,9.639730312284280345e+00,-6.880866233730748016e-02,6.130213195907403823e-02,-1.886954348667500003e-01
2.718100000000000023e+02,9.241743496437154759e-02,6.199295881719845552e-02,9.987245583909889035e+00,-2.093747704373858098e-01,-6.284449121801954918e-02,-1.424483004124142083e+00
2.718199999999999932e+02,2.969198069101337822e-02,3.469480729768765342e-02,9.688988763731776643e+00,-5.520543722679124299e-01,-1.401542441125752103e-01,-5.996188067946877504e-02
2.718299999999999841e+02,1.862391968203786219e-01,6.339851242315044932e-02,9.922014720960307343e+00,3.806735901903980368e-01,5.230522322690825399e-02,-6.094833912242880736e-01
2.718399999999999750e+02,-1.155428372752256329e-02,4.184411064089044868e-02,9.629920647499014663e+00,-1.534657269389893552e-01,3.306594001365004698e-01,5.990978398206036060e-01
2.718500000000000227e+02,4.754842677138316348e-02,-1.224041359242741961e-01,9.896124314967037705e+00,-5.130533563479593856e-02,4.476418514656414077e-02,1.984347298558736539e-01
2.718600000000000136e+02,3.288136530422608450e-02,1.330409747631531026e-01,9.745238681527579772e+00,-3.407383343505722140e-01,-6.489251425558810460e-02,8.071424652109493447e-01
2.718700000000000045e+02,4.725455175524111151e-02,8.567020952165179878e-03,1.003847301644193557e+01,1.071830750048614056e-01,-2.541085094937970967e-01,-2.551075394805402824e-02
2.718799999999999955e+02,-7.484219693469809642e-02,2.437511822689169549e-01,9.734420199147596264e+00,2.536525268348723827e-01,-7.260832149450761885e-02,-4.164061562492353263e-01
2.718899999999999864e+02,-3.044375767552746220e-02,2.766321016091696783e-01,9.720651271301791851e+00,3.559424764547004516e-01,8.115757952010382859e-02,4.631792973517504519e-01
2.718999999999999773e+02,-8.115319212995958376e-02,-2.509905885207536214e-02,9.732743229816495756e+00,2.430474466911127784e-01,1.788335411863691826e-01,4.876452001228765432e-01
2.719100000000000250e+02,4.076576021038171710e-02,3.713144655951051976e-02,9.863108469948304702e+00,1.054604440045085745e-02,1.753718599779131582e-01,1.228347819107563854e+00
2.719200000000000159e+02,3.327419583195087138e-04,-9.695526912442853362e-03,9.912052168540080643e+00,3.144818889124478822e-01,-5.042783273292982676e-02,2.910703814473758033e+00
2.719300000000000068e+02,-1.882168829079530203e-01,-4.532733887481178031e-02,9.714230845499429279e+00,-7.417187915914770502e-02,-7.966448280179727615e-02,4.456368669681332939e+00
2.719399999999999977e+02,5.135521968628917883e-02,6.091988464748311627e-02,9.865171299949341943e+00,1.090837411586692562e-01,4.131023305481658359e-02,6.243445901848711621e+00
2.719499999999999886e+02,2.167364541996427349e-02,8.660563199437447401e-02,9.797042389879496938e+00,-1.737779617611828059e-02,1.631740157721757109e-02,7.457504369804691891e+00
2.719599999999999795e+02,1.704227494492961681e-01,-3.038176218164237441e-02,9.720023753071837191e+00,9.926388708020059126e-02,4.374935625513579618e-01,8.800683222207860368e+00
2.719700000000000273e+02,9.270134448498357216e-02,4.810571007851816017e-03,9.824274079684823135e+00,-1.438995563316245174e-01,1.098790493043648175e-01,1.028222722624195384e+01
2.719800000000000182e+02,1.112836743549455998e-01,-1.639840109516860212e-01,1.004814523376420610e+01,-5.014393096203439981e-01,4.616948128952579333e-01,1.162601624195855976e+01
2.719900000000000091e+02,-1.128840914015170616e-01,3.312987492877035589e-02,9.835470035365167618e+00,3.175978629689172883e-01,-1.538431486453838981e-01,1.324090775319785607e+01
