t,ax,ay,az,gx,gy,gz
4.000000000000000000e+00,-1.020383247262154902e-01,-1.556099576933950290e-01,1.002127044094073760e+01,9.734187850301906364e-02,-5.009176715173413452e-02,2.558363990135287258e-01
4.009999999999999787e+00,-2.690944379289503946e-02,8.029422826362540497e-03,9.718617923290540972e+00,2.922855462982417232e-02,-1.346169866434111621e-02,-2.221412739181686524e-01
4.019999999999999574e+00,1.489045173884478990e-01,7.596108910399550218e-02,9.660045946767297664e+00,8.888803249858837074e-02,-3.372620461772346534e-01,-3.487267304704471660e-01
4.030000000000000249e+00,8.778251684801136046e-02,-7.485147213918408315e-02,9.829132351257396039e+00,6.484506527012079413e-02,-1.240576565368112089e-01,2.962025407987399148e-02
4.040000000000000036e+00,-4.336503267718472276e-02,7.323000627727059564e-02,9.901175422541031779e+00,1.609250607448488302e-01,-2.301470435474576789e-02,5.674615264327755870e-01
4.049999999999999822e+00,-3.423086386243993917e-02,4.498784357610074829e-03,9.776086576974940101e+00,2.526720703400976986e-01,-5.918156480632829480e-02,-2.146360334631566558e-01
4.059999999999999609e+00,-1.730873103765567522e-01,-7.125789671773227751e-02,9.727845015993638711e+00,-2.221513938314853276e-01,-3.454552385320932562e-01,1.233227840182889862e-01
4.070000000000000284e+00,1.444338791981810977e-01,-2.509570855901224196e-01,9.810522036508793065e+00,-1.608627709669844252e-01,2.901397267537754732e-01,-3.281349013903633316e-01
4.080000000000000071e+00,8.860635602461532090e-02,-9.934294131879017886e-03,9.784812398857727800e+00,-1.551507764093173203e-01,-1.176978741905986559e-01,-5.159149202947866941e-01
4.089999999999999858e+00,-1.370778210418529576e-02,-7.331992526524429808e-03,9.791128695429089035e+00,-1.921240325296974527e-01,1.285378975509840205e-01,9.298890869711173846e-02
4.099999999999999645e+00,2.001344191734226452e-02,1.314220585264143926e-01,9.732115522096961513e+00,-2.682234557115121265e-01,-7.206170531312897087e-02,-8.186754052130356119e-01
4.110000000000000320e+00,-2.170865828130410236e-01,3.388351352670111727e-02,9.758253582266513959e+00,2.322421412617434004e-03,1.980716979903822672e-01,-7.102207858919519223e-01
4.120000000000000107e+00,-4.867144960427494116e-02,-5.299547266707065746e-02,9.905731460194312277e+00,-1.102003437023505034e-01,2.854029973953968735e-01,-5.245716031674733104e-01
4.129999999999999893e+00,1.334445640864135585e-01,-1.571342574222621691e-01,9.937271075089029182e+00,1.562291217649669772e-01,4.971528361783750793e-01,-1.818093216112315336e-01
4.139999999999999680e+00,9.815473767300812724e-02,8.745466192015410867e-02,9.793571273958054491e+00,2.544625624786994167e-01,1.561279177659495310e-01,-1.157328848062294524e-01
4.150000000000000355e+00,3.307005570639320186e-02,1.174365696091819039e-02,9.701014723478875723e+00,3.551110400386765092e-03,-5.484781854825320629e-02,2.757226443474784516e-01
4.160000000000000142e+00,-1.471825863493666500e-03,-3.940247422417756523e-02,9.709501734536267747e+00,1.962566445779946600e-01,1.412596081013137994e-01,-7.239750463236329162e-03
4.169999999999999929e+00,7.964054296963266055e-02,-5.411597452250768714e-02,9.683958353853959977e+00,3.373718449660916083e-03,-3.246160339383152849e-01,-1.345128441560350108e-01
4.179999999999999716e+00,-2.813851065510864641e-02,1.243445068649700613e-01,9.899728243159577445e+00,2.212657451846324064e-01,1.081593462118817101e-01,5.948480128776829634e-01
4.190000000000000391e+00,-1.664693196195007885e-01,1.391291786396494090e-01,9.827099870562449269e+00,3.113170140217349502e-01,2.998506695745015854e-02,-5.189108706922602732e-01
4.200000000000000178e+00,-6.199139673872496644e-04,-6.267245708915487878e-02,9.790567080971937841e+00,-1.543145236355311090e-01,-3.201629008837479917e-01,-7.785602260796438412e-02
4.209999999999999964e+00,4.031193270855771421e-02,-2.298306180153854295e-01,9.898771185683031604e+00,1.408414523361411763e-01,-1.016402850727538693e-01,-1.638406686778485499e-01
4.219999999999999751e+00,1.122677684798021186e-01,-2.134209543484186233e-02,9.851054214622607219e+00,6.811918328953589508e-02,2.848812494742751777e-01,-1.139267713354404216e-01
4.230000000000000426e+00,-1.441195760495998790e-01,2.260981267960384886e-02,9.566073615024139443e+00,-6.567915807817201190e-02,-1.891124929358437012e-01,-2.652805967933301035e-01
4.240000000000000213e+00,-1.229113065514551677e-02,7.243456351598326522e-03,9.737971009043318915e+00,-2.548209709077042251e-01,-6.383903560915416345e-03,-8.554838181836883493e-01
4.250000000000000000e+00,-7.530365475512335038e-03,-1.574343708223299720e-01,9.805745307610406414e+00,2.400882870819298631e-02,-3.150326962927090246e-01,-3.455986921663782296e-01
4.259999999999999787e+00,-1.101251904847111995e-01,1.533053682605455270e-01,9.987246156144465203e+00,4.512945802750975371e-05,2.449386932963241656e-02,5.205261643996274001e-01
4.269999999999999574e+00,4.876732749232937786e-02,-1.860433845962216060e-01,9.974730702284213990e+00,-1.001264864272013305e-01,-1.015046880374338711e-01,7.801758764615011055e-01
4.280000000000000249e+00,7.473680316118015698e-02,-7.489295316024223437e-02,9.589803236566288192e+00,-1.452258239758147940e-01,-6.523091389959433384e-01,-6.149116796593822043e-01
4.290000000000000036e+00,-2.906923080310432062e-02,-1.021944569161611222e-01,9.682894644791383953e+00,4.765653442150341035e-01,-6.349178063788120385e-02,-9.659344482646929630e-02
4.299999999999999822e+00,2.055092608621472694e-01,-1.074787838310223842e-01,9.824475298557006298e+00,-1.381861476466897942e-01,1.462545528380544413e-01,-9.937113248934572596e-01
4.309999999999999609e+00,-3.193600075336582717e-02,-2.182616700342969729e-01,9.873019425852337605e+00,1.446040918484418902e-01,-1.944968467476965168e-01,5.437237028420330853e-01
4.320000000000000284e+00,-4.466834706906670782e-02,6.063748823472023958e-03,9.744158682737170452e+00,2.393410244839400472e-02,-5.753422874339077231e-02,-2.612006163627367816e-01
4.330000000000000071e+00,-4.756713479686022761e-02,1.414530793110500007e-01,9.861752933387622377e+00,1.593008441075724479e-01,1.212709222592085745e-01,1.385961483834979413e+00
4.339999999999999858e+00,-8.154990732884886961e-02,-1.646979528579717647e-02,9.743597761147343661e+00,-4.857632957402366336e-01,-1.944142939071928922e-01,8.048294146693243389e-01
4.349999999999999645e+00,-5.590254932338568905e-02,-1.007629819140167249e-01,9.750763966088170420e+00,3.318832739334145465e-01,-1.989503815439312706e-01,-2.551114081195884897e-01
4.360000000000000320e+00,-1.434088869232524044e-01,1.409593442071619129e-01,9.698480532385248765e+00,-1.399986464064974234e-01,-1.199954449663219597e-01,7.686622409212324758e-01
4.370000000000000107e+00,-1.915328239132928559e-02,8.393166420278838635e-02,9.673204011747843722e+00,-1.839714838209260961e-01,5.314441652448547576e-02,1.545184796103269420e-01
4.379999999999999893e+00,5.747400302429677386e-03,-8.445293775525153368e-02,9.759468652651522191e+00,3.276654481490464677e-01,1.408883204755025931e-01,-4.637491208358096584e-01
4.389999999999999680e+00,-2.282802490040798105e-01,3.223416354061722083e-02,9.923005151100515064e+00,7.139021096519169995e-02,2.925504069077830560e-02,2.363398972876953330e-01
4.400000000000000355e+00,-1.019495124798562753e-02,1.079022640275375394e-01,9.858089059506617957e+00,1.441046913836925916e-02,-1.018612933862930864e-01,-7.152387535902007300e-03
4.410000000000000142e+00,4.213408174192917986e-03,-9.038897435760297194e-02,9.837058639497467283e+00,-2.288837434894407663e-01,1.448203585323984965e-01,-4.863126648318161771e-01
4.419999999999999929e+00,5.145889906905393163e-02,1.216984078618322737e-02,9.781537996855815820e+00,-1.259756272181147829e-01,8.211062167663864264e-02,3.949808096299019244e-02
4.429999999999999716e+00,1.204635072575825361e-01,-3.884813748222363389e-02,9.852262706433192463e+00,1.709993924665078602e-01,-3.141845630163376396e-02,-3.652294780892214043e-01
4.440000000000000391e+00,8.513542646005099745e-02,-1.192501830720429229e-01,9.762625211376947831e+00,5.134800924728362415e-02,-3.859611858526895700e-01,-5.980288629246169330e-03
4.450000000000000178e+00,-6.203637225355519702e-02,1.662362007789142462e-02,9.729829018573900257e+00,-3.594733213383358716e-01,1.570397207517256200e-01,1.427927422441710170e-01
4.459999999999999964e+00,-7.364121722576463802e-02,4.323723742027810180e-02,9.863098037436346388e+00,2.101669286012608495e-01,1.397395464755626622e-03,-6.508551145905537572e-02
4.469999999999999751e+00,5.795044015498540535e-02,4.400527457332456191e-03,9.753227366799839260e+00,-7.930364106672832536e-02,-9.162427572818527752e-03,8.490134618354731044e-01
4.480000000000000426e+00,-5.472798363375213498e-02,-8.162200923927166729e-02,9.703213583277070953e+00,2.283878062781729001e-01,2.542863643861240086e-01,-7.614929270851846788e-01
4.490000000000000213e+00,-1.228054019123624302e-01,2.100782905934869549e-01,9.853173472413882195e+00,-2.952888679035905670e-02,3.712740467725852284e-02,-9.505408756008595916e-02
4.500000000000000000e+00,2.374141743400596527e-01,-4.896020565361258736e-02,9.674205210133665744e+00,2.638642003007237238e-02,-4.545954825094299934e-01,7.900460849230306337e-02
4.509999999999999787e+00,-3.107242646171937822e-02,5.584022831375667906e-02,9.848873510186351155e+00,1.929020691371735596e-01,1.485366475752195325e-01,1.987296290061602022e-02
4.519999999999999574e+00,-6.265241826885438459e-02,8.073386355276590542e-02,9.850611761346755202e+00,-6.624968678990438009e-02,2.325431636594847973e-01,1.101428482151973309e+00
4.530000000000000249e+00,-2.192130056241978764e-01,-2.490919473042762788e-01,9.681313040970062289e+00,-1.146644800959281119e-01,-9.636642899774418292e-02,-2.634701993164377705e-03
4.540000000000000036e+00,8.514020923788287454e-02,8.293672626915776780e-02,9.688132446325699476e+00,-2.505793791770698498e-01,1.834165492570122291e-01,-6.895517845471231533e-02
4.549999999999999822e+00,-9.879358457965414786e-02,8.944142713431740095e-04,9.940495930413540293e+00,3.496204314182471684e-02,4.645860451740955743e-01,4.685328935671000949e-01
4.559999999999999609e+00,2.862055956782617611e-03,-2.631003848503673734e-02,9.872197132288265564e+00,-7.100173632185348416e-02,2.120122434170312042e-01,-9.362698613586745156e-01
4.570000000000000284e+00,9.686231563044211956e-02,-1.229978769267159495e-02,9.858583903347888366e+00,1.122004397106367013e-01,-2.209352008015477153e-01,-6.407343626359848776e-02
4.580000000000000071e+00,-9.722685477240716745e-02,5.828797294777077198e-02,9.831626632105457730e+00,-4.819659215022827070e-02,5.462311469686070842e-02,-5.462465624047898594e-01
4.589999999999999858e+00,7.948245181753852903e-03,-2.282565028639551297e-01,9.881427322060501339e+00,9.345618406086526886e-02,1.782974167216248851e-01,-4.646756757630083889e-01
4.599999999999999645e+00,1.523787410193808700e-01,3.194475226929614428e-03,9.881425167338727888e+00,8.290603262615943436e-02,2.250142168763435979e-01,5.223747852901085009e-01
4.610000000000000320e+00,-2.456747056863479439e-01,4.310336107715066756e-02,9.729516692275831602e+00,-1.233534153013409462e-01,-4.425835608721299247e-02,2.666938146984007899e-02
4.620000000000000107e+00,-8.105058469792188192e-02,2.161064289185748444e-01,9.790992100394804609e+00,2.176529832331629555e-01,1.650772412944547241e-01,6.223953317595356527e-01
4.629999999999999893e+00,-9.045418837870712603e-02,-1.350216727280196538e-01,9.766164223899014729e+00,-1.377697695030701552e-01,4.539628691288342260e-02,-6.850744344627606591e-03
4.639999999999999680e+00,-1.869051225604089275e-02,4.433971796072925381e-02,9.867340624299380636e+00,-3.255226632144172516e-01,1.966758372015091350e-01,9.834520157388453310e-01
4.650000000000000355e+00,-4.779087737353800852e-03,-4.840024649006316459e-02,9.826886261217168794e+00,-4.498668134388621176e-02,-7.628458986203469350e-02,-3.084453942241503488e-01
4.660000000000000142e+00,-1.061262632946590456e-01,4.845010694048341310e-02,9.936501476896767215e+00,-3.368076090813822976e-01,1.322872053998771225e-01,2.359697921808645016e-01
4.669999999999999929e+00,-6.543733461130156470e-02,8.666385368892272345e-02,9.837872524214606784e+00,3.658221963888543676e-02,1.371759946609179548e-01,-5.512426238770316012e-01
4.679999999999999716e+00,-7.732249704528230960e-02,-7.351691432628261469e-02,9.813675646524567142e+00,-1.241903235909106729e-01,-2.547282543426009349e-01,2.953175174881338474e-02
4.690000000000000391e+00,-3.507892451728689132e-02,1.955130645025053848e-01,9.891599940429568250e+00,2.074593024949224762e-01,-3.990326533368712680e-02,-8.715524997355821035e-02
4.700000000000000178e+00,2.182227325310962668e-02,1.321570093149070924e-01,9.892580399321678541e+00,4.519087920122166063e-02,-2.868124650032379333e-02,4.778490243328208376e-01
4.709999999999999964e+00,9.105641223710805865e-02,7.882159650817011087e-02,9.932258884158688517e+00,-3.376641480511100579e-01,-7.570404192796892362e-02,-8.742761036801350860e-01
4.719999999999999751e+00,1.055330996546414712e-01,-3.567721026879102503e-02,9.830463373625159207e+00,2.084091026302914429e-02,-2.523460327079639631e-01,-4.425083687354419704e-02
4.730000000000000426e+00,6.536342613353238185e-02,-5.545275110498058130e-02,1.001546772869095747e+01,4.570245614265611711e-01,3.232847493694825936e-01,-4.440669953517643598e-01
4.740000000000000213e+00,-8.739741194850966788e-02,4.396075342721804391e-02,9.902499339775689080e+00,2.123533177444562881e-01,1.461174490460880881e-01,-4.180105366147435775e-01
4.750000000000000000e+00,-3.295920327353785064e-04,-3.941361240461569576e-02,1.001956782449237693e+01,2.328484616537390972e-01,-1.731691790680633114e-01,1.673304477687312664e-01
4.759999999999999787e+00,2.374329403492388413e-01,-5.237130741415701313e-02,9.818560783559961536e+00,3.580589165653607631e-01,-1.158828931696484488e-01,3.963605351534105203e-01
4.769999999999999574e+00,1.014532692687297732e-01,1.915215634622030594e-01,1.003686337138241491e+01,1.459332372533910516e-01,3.946096300560129611e-01,-5.027836972242208935e-01
4.780000000000000249e+00,-4.405045588735250622e-02,5.475460900496964545e-02,9.881510545603628515e+00,-9.000454737368102087e-02,-1.805063414552886547e-01,3.856911406147255361e-01
4.790000000000000036e+00,1.582038182963780015e-01,8.235512859379315320e-02,9.707507753793233718e+00,2.080418967956975951e-01,5.277228455829204024e-02,6.972181738897075265e-01
