t,ax,ay,az,gx,gy,gz
2.504000000000000057e+02,-1.079265477105840337e-01,-2.783840566867423205e-01,9.857690508502775728e+00,4.866141912597342356e-02,2.536345859599870023e-01,-1.506021458742846342e+01
2.504099999999999966e+02,-1.473758007818976035e-01,-1.812944724023843879e-01,9.802938459703289809e+00,1.295172388439975730e-01,7.350729976458716952e-02,-1.477900968308759921e+01
2.504199999999999875e+02,-1.279323569881946066e-01,3.954603403408718520e-02,9.713435805248694876e+00,8.380493882255174443e-02,6.552818582177257108e-03,-1.526519543544970681e+01
2.504300000000000068e+02,-7.387825131660471362e-03,-1.926569124606841987e-01,9.854221982205883634e+00,1.779439156581180126e-01,6.240921800837293670e-02,-1.560723235574240064e+01
2.504399999999999977e+02,-1.615568683257542215e-01,-2.967074910372372587e-01,9.878218688415353554e+00,-1.620699044168139591e-01,-2.684583052224082111e-02,-1.405413337598744761e+01
2.504499999999999886e+02,1.949659752351401709e-01,-2.291695074805289445e-01,9.818253702455198351e+00,-2.736964915035615571e-03,-1.676424723819712193e-01,-1.502636851858952127e+01
2.504600000000000080e+02,1.952232219795327628e-01,-2.131843536533505057e-01,9.766668961754426448e+00,6.692847198683614385e-02,3.853912025849777490e-02,-1.510575934933185849e+01
2.504699999999999989e+02,8.854932673920672126e-02,-1.619539724040680029e-01,9.992013563358709050e+00,-1.198676470270854666e-01,-5.850905145813948272e-01,-1.450138175187657907e+01
2.504799999999999898e+02,-3.694091223410694153e-02,-1.303562144526652367e-01,1.006030678804138567e+01,-3.888212996456911763e-01,2.145516297233524827e-01,-1.441245296867531067e+01
2.504900000000000091e+02,-4.836014719401886958e-02,-3.761343454076084836e-01,9.704485908407407990e+00,1.598051885468049910e-02,9.048020647435423003e-02,-1.463386339611117037e+01
2.505000000000000000e+02,2.965358319587670446e-02,-2.890205500247053916e-01,9.964320777057931622e+00,-1.238977287615179446e-01,-1.181387048080334012e-01,-1.468800556928517054e+01
2.505099999999999909e+02,5.966205163817783763e-02,-2.966107323465588252e-01,9.928106631666631543e+00,-3.613011566159620713e-01,4.920174001683980114e-02,-1.511111902927524042e+01
2.505200000000000102e+02,2.962578373574720897e-02,-6.470785274336614268e-02,9.913188150939769017e+00,-1.927524131543832953e-01,2.018971695724613991e-01,-1.618522378191852340e+01
2.505300000000000011e+02,-1.310473394112476597e-01,-2.681251737011169922e-01,9.638322336330261919e+00,-1.014287746929525141e-01,7.766288339874555247e-02,-1.515816857365985548e+01
2.505399999999999920e+02,-1.899087070713496167e-02,-1.387078017348064851e-01,9.824030584513945286e+00,-1.228994166227736912e-01,2.722722445361710486e-01,-1.582850820747986553e+01
2.505500000000000114e+02,5.332657549792486906e-02,-1.200858512481203788e-01,9.979393826037144422e+00,6.120909452709815540e-02,9.916337057188277793e-02,-1.590958040576799704e+01
2.505600000000000023e+02,-2.361538389993931009e-01,-2.171435616993598883e-01,9.684457576879069052e+00,-1.912306073722908409e-02,1.021533556346721910e-01,-1.449489358796598104e+01
2.505699999999999932e+02,-1.105311114511370180e-01,-4.094315004313149320e-01,9.860358261443757044e+00,-1.072061065991958273e-01,7.623406491010700781e-02,-1.566937268191196608e+01
2.505800000000000125e+02,5.258695135564639411e-02,-4.944760391756071460e-02,9.739016894262453761e+00,1.867444097133956205e-01,-9.348662051311167065e-02,-1.502574527179907626e+01
2.505900000000000034e+02,-3.121397181067578006e-02,-3.565999471143338484e-02,9.967604116655415680e+00,2.300881701898722376e-01,2.967695682599066909e-02,-1.460458833935086709e+01
2.505999999999999943e+02,-3.111234439799034565e-02,-1.687358958714466617e-01,9.993311901830441712e+00,1.788245192482614543e-01,9.927562749381109442e-02,-1.505137830024629331e+01
2.506100000000000136e+02,1.108441620082536716e-01,-2.350206240912294242e-01,9.899093603842722189e+00,-6.551335444870129421e-02,-2.870963169528246151e-01,-1.372601191281832200e+01
2.506200000000000045e+02,-5.381086900532917536e-03,1.285849677925154921e-02,9.811664854219372955e+00,-5.679640237179664486e-03,8.063377345163168231e-02,-1.523146105673917816e+01
2.506299999999999955e+02,-4.734542565608285125e-02,-2.381760635864902664e-01,9.799246700149792488e+00,1.872495086947948972e-01,1.211853843674589870e-01,-1.470496025367833681e+01
2.506399999999999864e+02,-3.085735567197574192e-02,-8.716676818796674497e-02,9.796068583738259505e+00,1.011990432095290909e-01,-1.938233744906014966e-01,-1.357023393644065834e+01
2.506500000000000057e+02,-2.756455869260448707e-02,-3.161737265861884749e-01,9.791862549106721048e+00,-1.404738954713916632e-01,1.308943569286122877e-01,-1.544521224500443246e+01
2.506599999999999966e+02,-8.345401287039296012e-02,-1.207931024083498395e-01,9.802914937218353941e+00,-4.571634081276202549e-02,-1.490809825847821124e-01,-1.453187035110126146e+01
2.506699999999999875e+02,-2.225306528817863963e-02,-2.965597297729521964e-01,9.913458345650070669e+00,3.170817189561400684e-02,5.795390110167750186e-02,-1.491284645248377849e+01
2.506800000000000068e+02,-1.139902213708686302e-01,-1.288001065391629063e-01,9.743541199476421610e+00,1.017869318250145538e-01,3.091913733346943749e-01,-1.490420014031331775e+01
2.506899999999999977e+02,-3.333230972922531649e-02,-1.663066290859729346e-01,9.908464182507694673e+00,8.551203627519299300e-02,-8.430093242630642969e-02,-1.469871175954065556e+01
2.506999999999999886e+02,-5.160893007283644945e-02,-2.032784110587348703e-01,1.012935767546461996e+01,-1.944634534510538970e-01,2.704664254612088037e-01,-1.486900881234917904e+01
2.507100000000000080e+02,2.313536365498543301e-02,-2.060712125102793224e-01,9.843031103038205387e+00,-5.586944900847531925e-02,2.180530837603046612e-01,-1.426879493866701942e+01
2.507199999999999989e+02,1.514524244784984097e-01,-5.831056569602785511e-02,9.886033603459335239e+00,3.250877596669708436e-01,-4.110725555640176027e-02,-1.473499130629247844e+01
2.507299999999999898e+02,2.595671505849611593e-02,-1.751881921014009358e-01,9.641321397243963531e+00,3.049398433661528948e-02,-1.816473259079679492e-01,-1.507695092594545550e+01
2.507400000000000091e+02,1.031481782214263565e-02,-1.271574051255255910e-01,9.856935535724741015e+00,3.585242865844135568e-02,2.015448571484375617e-01,-1.448019526761258824e+01
2.507500000000000000e+02,2.338358028556941637e-02,1.180602851997953062e-01,9.788438381833014290e+00,6.021769395788287987e-02,3.355712856518746068e-01,-1.502160386916845347e+01
2.507599999999999909e+02,-8.628152458726148777e-02,-2.917498751862388495e-01,9.941430765442017758e+00,-1.234775469491299349e-01,-4.230840211646145210e-01,-1.481583203482242617e+01
2.507700000000000102e+02,7.019563337598107300e-02,-2.437165493990451348e-01,9.976726307849716591e+00,2.486536404306248782e-01,-3.358330411981758079e-02,-1.542292262560628480e+01
2.507800000000000011e+02,4.064016420366181603e-02,-3.317331668680472134e-01,9.847297753292401978e+00,4.255109114480099854e-03,-1.582827881506545242e-01,-1.448330089849103608e+01
2.507899999999999920e+02,-4.498758352418838306e-03,-3.364229603745689245e-01,9.743165081893225832e+00,-8.831034181984248610e-02,-2.987797320375779053e-01,-1.461805512883334046e+01
2.508000000000000114e+02,3.549782036937505075e-02,2.388786190433495049e-02,9.743005924481717983e+00,8.420302493958541773e-03,-1.328165411751319573e-02,-1.583689428219160433e+01
2.508100000000000023e+02,3.276460389529825545e-02,-2.085770266832209230e-01,9.634280382993384961e+00,4.298212176067414680e-01,-1.844784822612000399e-02,-1.538463397452142800e+01
2.508199999999999932e+02,3.294617478229849156e-02,-4.300529199997756846e-01,9.770359194535078728e+00,-6.474189927106306364e-01,-2.374135979572543909e-01,-1.650232608495675990e+01
2.508300000000000125e+02,9.942661357839932545e-02,-1.949319557039871642e-01,9.757266292150104547e+00,2.219895170622087077e-01,1.435864596326946185e-01,-1.546587032800437278e+01
2.508400000000000034e+02,-7.581243357040362563e-02,-2.160651669192201196e-01,9.953166700062636707e+00,-1.884684005556669095e-01,1.010305922960954839e-01,-1.502202879986117701e+01
2.508499999999999943e+02,1.311212728758082702e-01,-2.716055613027054116e-01,9.962863091877167676e+00,4.818726413234342143e-01,-3.488382441809634860e-01,-1.533797944232629895e+01
2.508600000000000136e+02,-1.602658270683763875e-01,-2.107797086685059551e-01,1.002678662261640241e+01,-1.560903021648662181e-01,2.242643366901843904e-01,-1.440267212766427996e+01
2.508700000000000045e+02,6.618896035170411529e-02,-1.509031248263588421e-01,9.740956288051309642e+00,2.528260058725377915e-02,1.994823395052903459e-01,-1.506325192638396082e+01
2.508799999999999955e+02,1.677603184711772347e-02,-2.076795814331136580e-01,9.744163181380988803e+00,1.053424223183385688e-01,-2.059732416273974409e-01,-1.502545920933684265e+01
2.508899999999999864e+02,-9.629104014319679605e-02,-8.146403104681554375e-02,9.714960695104547739e+00,-2.488932068196592073e-02,-2.214833079107262348e-01,-1.525152989971350337e+01
2.509000000000000057e+02,1.029103052433046062e-01,-1.728229597572503162e-01,9.991814420014900833e+00,1.037218684986621620e-01,1.183846129333182562e-01,-1.521328379436075551e+01
2.509099999999999966e+02,-1.813514285169656459e-01,-1.653217632832379713e-01,9.894572932617114347e+00,9.358599993973962597e-03,1.167255867405416203e-01,-1.560298126766666726e+01
2.509199999999999875e+02,1.625222745287981663e-01,-1.859002927169095265e-01,9.992435072251911521e+00,-1.145777686626844177e-01,1.036042601501063198e-01,-1.490989276308792100e+01
2.509300000000000068e+02,2.256814402525205154e-01,-2.900512031522384238e-01,9.859217550931539620e+00,-3.855839774306146078e-02,-9.041396100642621128e-03,-1.529865859996188782e+01
2.509399999999999977e+02,-1.632001575869693535e-02,-2.860570033698693893e-01,9.949911892541814851e+00,-2.043782229152713570e-01,-8.316415407188113701e-03,-1.515644957281102734e+01
2.509499999999999886e+02,-1.027718356050098952e-01,-1.545968184531156253e-01,9.784762426223331033e+00,-1.780617661043136513e-01,-1.888839539460967221e-01,-1.574132507366237377e+01
2.509600000000000080e+02,-5.777371342342039334e-02,-2.424898030678814265e-01,9.828570965932986070e+00,1.235562255686336597e-01,-6.877469805500706634e-01,-1.463186120421313419e+01
2.509699999999999989e+02,9.751145211207067065e-02,-1.068811798165584387e-01,9.743731268622562780e+00,-1.712151487468764957e-02,1.369390631049886668e-02,-1.376201218582303909e+01
2.509799999999999898e+02,-3.223748489583754678e-02,-2.001802049112046955e-01,9.823894359880778637e+00,7.179019357101672216e-02,4.619868318275640040e-01,-1.501874596754953650e+01
2.509900000000000091e+02,-2.935490821432694131e-01,-2.439552906366685425e-01,9.745372478270455829e+00,2.103707341224494987e-02,-6.840713853093752239e-02,-1.565012271674850730e+01
2.510000000000000000e+02,3.834273686421466737e-02,-1.407756193333850880e-01,9.891641695708464965e+00,-1.611542723410202826e-01,7.351287808121319267e-02,-1.489928673822416272e+01
2.510099999999999909e+02,8.938388109634029521e-02,-1.639431301192181278e-01,9.819553444959232991e+00,-1.937971639307771721e-01,-1.103653027022582223e-01,-1.497425503198871333e+01
2.510200000000000102e+02,5.143119182515779736e-02,-3.323815667995204670e-01,9.857512355937172899e+00,2.336768935178262230e-01,1.473040766530006422e-02,-1.533872301797691229e+01
2.510300000000000011e+02,6.733222755307888274e-02,-3.486850804230869350e-01,9.941783816671547314e+00,1.864474371648743301e-01,2.384120763052147707e-01,-1.459765391304671134e+01
2.510399999999999920e+02,1.604522946221803303e-01,-1.095409796680092002e-01,9.825343488459584051e+00,9.237667081423878157e-02,-8.552149694510824407e-02,-1.431296391238124066e+01
2.510500000000000114e+02,-2.114605500225027329e-02,-2.409236108704703727e-01,9.789017332063300714e+00,-9.257603756183097055e-02,5.548131985494629027e-03,-1.455950389918876731e+01
2.510600000000000023e+02,1.718325590146570769e-01,-1.514837587730267221e-01,9.717045126276831368e+00,-5.527940402469299491e-02,-1.046650661125028414e-01,-1.558380922136710289e+01
2.510699999999999932e+02,-1.543720402053426304e-02,-1.434232824277382745e-01,9.765841937087259339e+00,3.579862241480744611e-01,2.328055163690259666e-01,-1.451468967896312812e+01
2.510800000000000125e+02,1.126651563038762460e-01,-4.633476995197569059e-02,9.720488405707769175e+00,3.914313641983934167e-01,-9.600720625327711574e-03,-1.569036234431860422e+01
2.510900000000000034e+02,-1.424103601593642958e-02,-1.709956161405262742e-03,9.942891755616106053e+00,2.200104080533978879e-01,-5.697062016142881435e-02,-1.601047891905186304e+01
2.510999999999999943e+02,2.038305825759680889e-01,-2.810693420589789326e-01,9.826744739658566985e+00,2.167451744776296152e-01,1.186875714254138625e-01,-1.526327023042177977e+01
2.511100000000000136e+02,6.479175883335740183e-02,-1.815897561210146338e-01,9.930862886773825338e+00,4.187298316234340234e-01,3.564142947056910676e-02,-1.486270979632875111e+01
2.511200000000000045e+02,-9.617215797429893090e-03,-1.790208202906714285e-01,9.823444730864254737e+00,7.938343159847205399e-02,-3.268915322319718153e-01,-1.531040169517676119e+01
2.511299999999999955e+02,-1.199582715426481816e-01,-1.476367315584722895e-02,9.906559999446876930e+00,6.791115152057110305e-03,2.680384478289020711e-01,-1.506141691083048784e+01
2.511399999999999864e+02,2.062132268221163189e-02,-3.106112507317885241e-01,9.831926741042545714e+00,-4.193071724563608021e-02,-2.434820042298776743e-01,-1.512093871216076657e+01
2.511500000000000057e+02,-8.192772249133145612e-02,-2.310934942271014592e-02,9.801600481213343485e+00,6.817748407297921642e-02,-1.251218091642639918e-01,-1.505929956114975354e+01
2.511599999999999966e+02,4.409999447051571320e-02,-1.104040579957960011e-01,9.927066832291368215e+00,-1.028355411700008770e-01,4.104439862224930069e-01,-1.453352438349457820e+01
2.511699999999999875e+02,6.589678730153734898e-02,-2.216019213039873148e-01,9.795277433044574877e+00,-7.874201643023125141e-02,1.109319135660003647e-01,-1.496281251270502999e+01
2.511800000000000068e+02,1.040360906171540756e-01,-7.943798111693901876e-02,9.831995691866209697e+00,-1.692881913324945642e-01,1.365032808617288873e-01,-1.442842791718867090e+01
2.511899999999999977e+02,5.377066505124170059e-02,-2.041578216683250790e-01,9.929483594339755470e+00,2.263339907770244575e-01,-8.639375744671654034e-02,-1.509615042149972020e+01
