t,ax,ay,az,gx,gy,gz
1.744000000000000057e+02,7.813434393694473901e-02,3.413037837933394214e-02,9.631545303462576868e+00,1.549442384305956821e-01,6.149769330799338685e-02,-1.528645509473476882e-01
1.744099999999999966e+02,-9.305707077566631458e-02,9.005935867286816998e-02,9.597464575495274985e+00,2.937250901316590390e-01,-5.449692888299694643e-02,-4.462991283519040508e-01
1.744199999999999875e+02,1.933065225710790536e-01,-1.129657517932246835e-01,9.772605576363750046e+00,-1.789911000500632732e-01,-1.861132915760091988e-01,-8.919378762777940839e-02
1.744300000000000068e+02,-8.245185534670733396e-02,1.717538812321874331e-01,9.891878617533015117e+00,1.834714678131253995e-01,-1.216726005017682716e-01,6.047479119347677345e-01
1.744399999999999977e+02,-1.439333840160680368e-02,-1.680689246266745540e-01,9.691328157893192241e+00,2.024229207247040252e-01,7.214190801629903615e-02,3.551356676852607253e-01
1.744499999999999886e+02,-1.438176903395631812e-01,-7.404683656693648863e-02,9.916602034479588212e+00,-3.288029293938736219e-01,-1.785512493136115486e-01,-2.722494150828423387e-01
1.744600000000000080e+02,1.046113105847574637e-01,1.970983349141645358e-01,9.920777444942215695e+00,-7.714353344519336853e-02,4.118579159553072133e-02,-8.497823153838773846e-01
1.744699999999999989e+02,1.888110878812520044e-01,-1.484971554744450306e-01,9.708091682864427696e+00,1.025057025938960475e-01,2.075661191396719618e-01,2.370372559095462461e-01
1.744799999999999898e+02,2.008141936137437245e-01,-5.917547387265698067e-02,9.608011768184319124e+00,-1.316955929887805681e-02,-4.988230748299227191e-01,-2.846004211523623928e-01
1.744900000000000091e+02,1.134721035485864171e-01,-7.782187509529639446e-02,9.908592284756821300e+00,1.146642321368278594e-01,-2.800430619067207916e-01,1.342524496218653773e+00
1.745000000000000000e+02,-3.711420769548730292e-02,-2.419667389173869587e-01,9.931765887340814558e+00,1.310499706558021227e-01,1.524975956841105318e-01,-1.796830535373482585e-01
1.745099999999999909e+02,1.719435056697061169e-04,-1.101697867142678589e-02,9.804099664027578598e+00,-1.919602818139069453e-02,-2.662486682574011915e-02,8.039593336989938610e-01
1.745200000000000102e+02,-3.229044459666407380e-02,4.439537303479638292e-02,9.816109618328043851e+00,-1.272347235229415452e-01,5.519376863612854289e-02,-8.927095983985371408e-01
1.745300000000000011e+02,-1.213150687300239838e-01,4.409168462547480988e-02,9.813456541303636982e+00,-5.189560009168354970e-02,2.298841356824142534e-02,2.985622577486524154e-01
1.745399999999999920e+02,-2.954807345266099658e-02,-5.949402014649886328e-02,9.845817730271976487e+00,-2.453711226059945294e-01,7.989211016971276003e-02,2.976231481925992184e-01
1.745500000000000114e+02,9.087614801144298926e-02,-1.983040007055706377e-01,9.889619003003531361e+00,-2.856493198238429509e-01,1.485630303492214421e-01,1.667003616718424619e-01
1.745600000000000023e+02,-8.669840205875055383e-02,-7.028737786644674579e-02,9.759331768564445397e+00,1.275704113485661428e-01,1.667387872831228579e-01,-4.496519804778676965e-01
1.745699999999999932e+02,-2.280986931002761120e-01,-9.093775647476064206e-02,9.696244905844242368e+00,1.785708690173951896e-01,-4.570677023412128559e-02,1.839872144029402676e-02
1.745800000000000125e+02,-1.253003319348715006e-01,2.470305107079075191e-02,9.760043383249799476e+00,-2.394486762101797894e-01,1.519406262639613203e-01,-2.934298775450457919e-01
1.745900000000000034e+02,8.182179165456492098e-02,-5.786258371638174774e-02,9.815853732059501624e+00,9.433560173355087786e-02,5.136550255445374025e-02,-2.258284250586496955e-01
1.745999999999999943e+02,-1.718203895546123183e-01,3.890095955473205774e-02,9.862734511880898225e+00,5.151763103737332788e-02,-1.467886294426722638e-01,1.554567955354423103e-01
1.746100000000000136e+02,-4.719921726233347603e-02,-1.946416752647095461e-01,9.901930895687678813e+00,-2.954335829068114871e-01,-3.101911422357733761e-02,-3.605464044352948982e-02
1.746200000000000045e+02,-3.836219320035150898e-02,6.075552985251230637e-02,9.878074807097116050e+00,3.882201909647802207e-01,1.985990531856517138e-01,-2.399637751815224818e-01
1.746299999999999955e+02,2.580009976694948651e-02,4.848043551182550093e-02,9.840501103375641989e+00,-4.900201013294206570e-02,-1.506950088482157668e-01,4.542953446355855740e-01
1.746399999999999864e+02,2.346048410625799913e-02,-1.130277683337571060e-01,9.757746204716941207e+00,8.012516675174460867e-02,3.157151129995572347e-01,7.155961223810914928e-01
1.746500000000000057e+02,4.002183908386733324e-02,-7.512254373397971030e-02,9.624208187092541777e+00,6.433328232172705330e-02,2.854336411264063109e-02,-5.518134050251404243e-01
1.746599999999999966e+02,-1.486790888714308728e-02,-3.567294324087562363e-02,9.894341940393704959e+00,1.174551754609811857e-02,2.124182110678983215e-01,-3.590613152704986710e-01
1.746699999999999875e+02,-9.445294576993008839e-02,1.047199800181909252e-01,9.996103666414857258e+00,1.022934875946805988e-01,5.985259851007233151e-02,-4.265922812167833866e-01
1.746800000000000068e+02,9.014020901613845060e-02,-3.282063478937249923e-02,9.770099427377227030e+00,3.045264711631016086e-01,-1.154955165171845100e-01,2.926064578915048009e-01
1.746899999999999977e+02,-1.763723876486993081e-01,3.017439023791639030e-02,9.912670459203937412e+00,4.043096643568529491e-01,-1.872653637249641900e-01,9.704637556088936412e-01
1.746999999999999886e+02,7.812571909962574834e-02,-3.596099532815710126e-03,9.658559141882031795e+00,4.477912981941235826e-02,-1.000555354035178868e-01,4.812847852756319544e-01
1.747100000000000080e+02,1.144092694541294225e-01,8.778221762150775764e-02,9.759440008009770295e+00,6.513568464789019907e-02,2.469899753110991747e-01,9.272496619222089231e-01
1.747199999999999989e+02,2.336746454024997144e-01,1.354300783903609508e-02,9.683414038834781579e+00,3.996863353397321905e-01,2.618188180291209366e-01,3.911521466303654604e-01
1.747299999999999898e+02,-7.541921187951444727e-02,-1.273915519241005656e-01,9.969916161373578944e+00,-5.765711059216805691e-03,-2.762555099601262665e-01,-6.832835814469165880e-01
1.747400000000000091e+02,-5.601911806743059552e-02,-2.912361629214183650e-02,9.740263010846824443e+00,-1.751283208383107026e-01,-2.895718206900461666e-01,-3.133185064715703350e-01
1.747500000000000000e+02,5.332796584943850192e-03,9.736806121172152106e-02,9.817713532384294339e+00,-1.023897397672873799e-01,6.452825008722784528e-02,4.372260825704799014e-02
1.747599999999999909e+02,-2.126405201214709006e-03,2.972577847399117748e-02,9.839584158209214948e+00,-2.118935128318243100e-02,-2.867388172012311914e-02,-1.568998692833064867e-01
1.747700000000000102e+02,8.346231822478283879e-02,-1.250045937645444249e-01,9.995488570454686084e+00,-1.125174653440072503e-01,-3.312397630881429578e-01,-4.930134157204225098e-01
1.747800000000000011e+02,5.224641173900956836e-02,1.751233690212201932e-01,9.723564348215177233e+00,2.661049643995468950e-01,4.576863066637490984e-01,-5.865484920940480240e-01
1.747899999999999920e+02,-3.518821741404516701e-02,-6.316611589934052751e-02,9.893756554380427559e+00,-1.312721053912645208e-01,8.288130274686791865e-02,-5.383989786394995924e-01
1.748000000000000114e+02,-9.808541239626974995e-03,9.045421529787611714e-02,9.721748713468878478e+00,-2.588574367475777738e-01,1.731417858260118070e-01,1.296864287200344135e-01
1.748100000000000023e+02,9.333207846519014916e-02,1.392481768341653769e-01,9.796279191374141604e+00,2.658349988113034926e-03,1.517098381304290977e-01,-3.356648009765909046e-01
1.748199999999999932e+02,-1.266195909963666322e-01,1.040206082346232103e-01,1.003089989195843224e+01,1.586217904655987665e-01,-5.109415082683088638e-02,-1.386494586889590874e-01
1.748300000000000125e+02,-2.336988135261786753e-02,-8.985162373224431231e-02,9.820800876390959999e+00,1.472246131246130463e-01,1.017703288939430933e-01,-1.348410663625612960e-01
1.748400000000000034e+02,5.547233026509205273e-02,1.077553188713193943e-01,9.896479333314744053e+00,-5.698185775405070763e-02,1.830408683256548319e-01,1.434280085008746264e+00
1.748499999999999943e+02,-1.066668737774761067e-01,2.281953753949349933e-02,9.831626748766991497e+00,-1.769225744608432169e-02,2.515380097823431693e-02,-5.345749822052435762e-01
1.748600000000000136e+02,-3.540961146346562338e-01,-1.330108910133425693e-01,9.830799585331742918e+00,4.376983361746629268e-03,3.101103520045934148e-01,4.488961810255226448e-01
1.748700000000000045e+02,1.446576453501785542e-01,-9.146416675087634326e-03,9.881222944798139451e+00,-2.182037887018854760e-01,1.748654728941872183e-01,1.870518278647691490e-01
1.748799999999999955e+02,-2.047320196929016105e-03,-1.004245546956596957e-01,9.720128509240616665e+00,-6.121355827369182739e-02,-3.047379696614093691e-01,-9.866884511057554263e-01
1.748899999999999864e+02,-1.257566929860316485e-01,3.872233711253506711e-02,9.844537946948580753e+00,-2.224005254734368053e-01,1.541775836916068065e-01,-3.038482947852599869e-01
1.749000000000000057e+02,9.204193033135249502e-02,7.850554280999183510e-02,9.648123109399007191e+00,-2.930509041001284065e-01,-2.068293017265644684e-01,2.892283020881027400e-01
1.749099999999999966e+02,-2.083081569697030344e-02,1.122489191584250812e-01,9.708358498372618328e+00,3.133844726623333798e-01,-2.654931241851656853e-01,2.756852015588939775e-02
1.749199999999999875e+02,-1.034814888574590724e-01,-7.936071656560801657e-03,9.938100276824224366e+00,-1.211196586849000306e-01,9.820864416429020416e-02,3.941951986044556211e-01
1.749300000000000068e+02,3.697287410339422653e-02,-9.203975427300226109e-02,9.723144710530062795e+00,3.512582732281446796e-02,-3.661163522771992279e-02,4.699314192471063661e-02
1.749399999999999977e+02,5.155318221118182671e-03,-1.206288792082085976e-01,9.890254914783533025e+00,5.101289190044357158e-02,2.472572574608662699e-02,-3.157203578331798655e-01
1.749499999999999886e+02,-6.131888143874002911e-02,6.748733569708460778e-02,9.433381225486298760e+00,6.405310021581721303e-02,-4.660737345749335070e-01,6.096629371418937904e-01
1.749600000000000080e+02,-7.696127630272847631e-02,9.707484456004328299e-02,9.742383672291101249e+00,1.795655942700196683e-01,1.271037454498504804e-01,1.445593780862849866e-03
1.749699999999999989e+02,-1.026139577591358432e-01,5.447305512522655768e-02,9.758750930951892499e+00,-1.648386365050950320e-01,3.015425498252762848e-01,-4.458330472899265651e-01
1.749799999999999898e+02,7.355521354802224687e-02,-8.570574369101553736e-02,9.747400102122266929e+00,7.587909418585811472e-02,1.342722317312739500e-01,2.825073395404412158e-01
1.749900000000000091e+02,-1.248356477711689005e-01,-6.421439887180074857e-02,9.797171691098496282e+00,6.718199181909928486e-02,-6.744476995406487041e-02,-9.249448738561386052e-02
1.750000000000000000e+02,-7.975065804790082424e-02,-5.744821279827880267e-02,9.846112597201933880e+00,9.207192928632675077e-02,-1.179689836352958709e-01,-2.500894153562185918e-01
1.750099999999999909e+02,1.011542946995639715e-02,-1.504444670140908935e-01,9.771400332010196976e+00,-1.315013897211827869e-02,7.477426006148170379e-02,-1.674099927303380198e-01
1.750200000000000102e+02,1.458883287316253552e-01,5.019772515284239012e-02,9.849587607230194664e+00,6.449808819590023556e-02,7.568674374742433153e-02,-1.397249095132295227e-01
1.750300000000000011e+02,1.328999865254226233e-02,-1.444852190085874066e-02,9.804798701641482594e+00,1.206728455667072653e-01,8.363025866977402689e-02,5.397639066154199528e-01
1.750399999999999920e+02,5.881732469452824463e-02,1.429679628212874032e-01,9.931627608981592914e+00,1.056030854471500247e-01,7.237143715426652690e-02,-6.533348447633260392e-01
1.750500000000000114e+02,1.022089997413080063e-02,-9.741258059412780113e-02,9.960584338780559932e+00,3.041995713155891401e-02,2.823784947767641884e-01,-3.827797833370304437e-01
1.750600000000000023e+02,9.064368679320511379e-02,-1.476191890722621664e-02,9.849466685418274636e+00,4.511051517528283927e-01,-1.928418475805357968e-01,7.862482630318200494e-01
1.750699999999999932e+02,1.937562720390904047e-01,-1.247678144541442546e-01,9.915953119867543464e+00,-2.335928058639200611e-01,-6.560663726347628621e-01,2.707511797712561785e-01
1.750800000000000125e+02,-4.377255753868483645e-02,-3.824286029580212937e-02,9.815758183717807839e+00,-7.821877232192710194e-02,-3.075651226232176683e-01,3.505664132458365390e-01
1.750900000000000034e+02,1.404081800784061839e-03,7.887843341043501710e-02,9.917762587849308531e+00,1.129655694758748517e-02,2.485148550856095262e-01,-1.173065910639614629e-01
1.750999999999999943e+02,1.735280261344957289e-02,5.563748690207932779e-03,9.825243609672885015e+00,-1.174819128681589969e-01,2.518632016025982856e-01,2.708873553031219683e-01
1.751100000000000136e+02,5.298100656836388783e-02,-9.670765834582735476e-02,9.792263131533360365e+00,-1.059014613521124110e-01,2.288555041172565252e-01,8.591618020249155441e-01
1.751200000000000045e+02,1.324149765536344892e-02,-1.499342221715998791e-01,9.608729573976315663e+00,-2.658862889404762231e-01,5.003097628864979773e-01,-8.344115568578060194e-02
1.751299999999999955e+02,-5.437411103659248873e-02,-3.351995630404117771e-02,9.844480791833964517e+00,-1.720087544533532020e-01,1.215921205962228746e-01,-2.408106513221631717e-01
1.751399999999999864e+02,-7.095859572590296292e-04,2.056073629087350196e-02,9.844044107617238026e+00,-1.051935088549689479e-01,2.338605570705987180e-01,1.586202902218704913e-01
1.751500000000000057e+02,2.431672342531423225e-01,8.201411363585664471e-02,9.695467362264565736e+00,-4.366221744563163892e-02,4.759237604807006056e-03,-2.262238542626261034e-02
1.751599999999999966e+02,3.138837721239740031e-02,-7.466546399173061566e-02,9.751060775896123189e+00,4.521696225092510998e-03,9.495785481634225200e-02,-7.238691433946570220e-01
1.751699999999999875e+02,-1.910770435672140000e-01,-7.721130005798958196e-02,9.653782697684951231e+00,-2.415806554478007462e-01,4.229944567659908450e-01,-3.215246875187525721e-01
1.751800000000000068e+02,-3.948939793937619736e-02,2.123356288780459955e-01,9.885821212813480585e+00,-1.856308364667728361e-01,-2.916111773145740882e-01,3.819238700429531952e-01
1.751899999999999977e+02,1.339512972067167379e-03,-2.409695230867811740e-03,9.740392236131842907e+00,4.244415398898631654e-03,1.047531278169242380e-01,5.792381110585136383e-01
