t,ax,ay,az,gx,gy,gz
5.439999999999999858e+01,3.893423942197369453e-02,7.091253101622749765e-03,9.877003365581925820e+00,-2.026832752283141970e-01,-3.176146807301368780e-01,-2.592331719566006720e-01
5.440999999999999659e+01,8.262494226728235580e-02,1.205880115843436726e-02,9.853941101517612822e+00,-9.159519010395074379e-02,-8.983058657880205189e-02,-1.117314850328230552e-01
5.442000000000000171e+01,8.595738801721547126e-03,2.634335679569436289e-02,9.857881055311541019e+00,2.051055085252323773e-01,2.073971097247254980e-01,-7.724448323425405771e-01
5.442999999999999972e+01,-5.871541590312039788e-02,1.442143878407722013e-01,9.791942391043782834e+00,-2.345253763583754480e-01,-1.205302400598196322e-01,-1.150328320904968060e-01
5.443999999999999773e+01,-5.321724562434457240e-02,-7.597071785762793406e-02,9.882722005032618995e+00,6.614101281055302650e-02,-5.733128196437003998e-01,-1.566662509750755550e-01
5.445000000000000284e+01,3.854730704569522132e-02,4.877538046603540484e-02,9.804740677511617264e+00,-1.628660022145012598e-01,-3.645195692072054905e-02,-2.705228768727353517e-01
5.446000000000000085e+01,4.129805655250470137e-02,3.344727025826704780e-02,9.843581163022090408e+00,1.690656318440422190e-01,1.012366442920198256e-01,-4.667640505145495555e-01
5.446999999999999886e+01,-2.929546157635447290e-02,4.552816589191469032e-02,9.787219020225212063e+00,2.661968499309812497e-01,3.410369921185662373e-02,6.980922408661988099e-01
5.447999999999999687e+01,-2.619152205053339455e-01,-3.104176356652937896e-02,9.928763842947772034e+00,2.816323586065405116e-01,5.249199658454280215e-02,-3.902590521281794622e-01
5.449000000000000199e+01,-1.290522727291290583e-01,7.635009485971500087e-02,9.731214270412760214e+00,-2.507395645251818683e-01,3.650626702177076077e-01,-3.743655394742521070e-01
5.450000000000000000e+01,6.196889216121123645e-02,-7.293544413367054891e-02,9.601742947629739788e+00,-1.023792913663811172e-01,2.617703485056510071e-01,-2.368505286188768433e-01
5.450999999999999801e+01,-2.130837997355875812e-01,-4.697248926322258877e-02,9.761197822217496878e+00,1.837475245843325222e-01,-1.023777679216338332e-01,9.961664365657267872e-01
5.452000000000000313e+01,1.184181016367214928e-01,-1.852066643927104475e-02,9.962611907602482830e+00,-6.313339979118524903e-02,2.268106329389241727e-01,5.708070862121399358e-01
5.453000000000000114e+01,1.036157261138503927e-01,-2.294174620798352174e-02,9.893522381987473580e+00,1.073437478212071750e-01,-1.004046519445692259e-01,-4.004927996605865959e-01
5.453999999999999915e+01,4.109638193320572751e-03,3.736107550026215168e-02,9.928279102468506423e+00,-5.685384818092853454e-02,-3.853306992096489775e-02,1.813523213975949122e-01
5.454999999999999716e+01,5.979310342286077440e-02,2.602914562580058849e-02,9.823660470897866759e+00,-2.436504080690622132e-01,1.343138881302057552e-01,-4.108004954645789741e-01
5.456000000000000227e+01,5.287746783588859190e-02,2.688388479892764998e-02,9.823852618850978047e+00,-2.561925584360241204e-01,-3.106641255868369811e-01,1.295363593411361924e-01
5.457000000000000028e+01,-1.168731283662129486e-02,1.321750920502438309e-01,9.748585844015352109e+00,4.185623091727008228e-03,-7.668174823126078232e-02,3.688455281776707451e-01
5.457999999999999829e+01,-1.373889117588570075e-01,-2.079311409044511116e-02,9.753339774681597518e+00,-4.059895340922224649e-02,-2.114746683045480857e-01,-1.926882821507883148e-01
5.459000000000000341e+01,9.672729750616863853e-02,1.056227186984939892e-01,9.813104982866347470e+00,2.398428697504567664e-01,-3.717529851806700147e-01,2.012346447782827064e-01
5.460000000000000142e+01,1.407230011383635015e-01,-1.064524058574836118e-01,9.812161346628863967e+00,-8.234545219437258701e-02,-2.228235714536179468e-02,-8.260973073800111921e-01
5.460999999999999943e+01,-1.208590524242342118e-01,-1.282832557366393213e-02,9.800076295497120782e+00,-2.330271384579596927e-01,3.440508755158277338e-02,1.059993391379368405e-01
5.461999999999999744e+01,-1.411255005169699539e-01,-6.703912187845147662e-03,9.840081975510972967e+00,1.487993396007384339e-01,-1.212525688636286736e-01,7.379587078871628902e-01
5.463000000000000256e+01,-1.367969047573408536e-02,-1.308277684140425889e-01,9.767206692489423858e+00,-8.503160461186676233e-02,2.511915362229543147e-01,-8.039782330232718710e-01
5.464000000000000057e+01,-6.262245956364498323e-02,4.502654173486819560e-03,9.850175849785941296e+00,-3.084943152104596131e-01,-2.635877803468877345e-01,2.590047634443842783e-01
5.464999999999999858e+01,1.449492402054591324e-02,1.157992665206570952e-02,9.941214552034001173e+00,7.309703146730263390e-02,-2.414382878655284004e-01,-3.367898589746430860e-01
5.465999999999999659e+01,1.207994039860386670e-01,5.973443385951981988e-02,1.001225100374062471e+01,-1.417994144854733685e-01,1.520194968100443689e-01,-2.709750776977185582e-01
5.467000000000000171e+01,-2.245670438272495684e-01,4.821248501549553478e-02,9.739944436668215744e+00,-3.301658475426647588e-01,-4.358307469291709813e-02,-9.666770036048882853e-01
5.467999999999999972e+01,1.581271951619154792e-01,-1.277478207144882305e-01,9.932002947206942878e+00,9.239044897150705538e-02,7.732105409397130313e-02,6.398353699473610101e-01
5.468999999999999773e+01,-4.066684418769198756e-02,1.195942390472454486e-01,9.889296304978266505e+00,-1.542219830022042437e-01,1.077987873834876514e-01,1.099792058746289714e+00
5.470000000000000284e+01,5.117789786504942096e-02,-4.624550060874264845e-02,9.931656398792938489e+00,1.870881393291617401e-01,3.230807150608511202e-02,-2.984027979194597835e-01
5.471000000000000085e+01,6.187258381044657973e-02,-6.048321585153806912e-02,1.001109663553005014e+01,-3.958021725934750962e-02,-1.964927164713177188e-01,2.577748165358496046e-01
5.471999999999999886e+01,7.353411541977961097e-02,4.902584865332625802e-02,9.962145715400296808e+00,-6.917668075964084062e-02,3.994717439616869703e-02,-9.809644657227593045e-01
5.472999999999999687e+01,6.190810402999680218e-03,8.510618461252045241e-02,9.687118891935435627e+00,4.319281370233886697e-01,3.300701870489863854e-01,1.290667097403026320e+00
5.474000000000000199e+01,2.955606017867457719e-02,-4.721287696027456210e-02,9.818296156610408332e+00,3.280810070709021253e-02,1.512708070840481367e-01,-2.756094878483840160e-01
5.475000000000000000e+01,2.890220506054030913e-02,-4.434831479393081845e-03,9.730696387168940475e+00,-5.336490665232176966e-02,-1.475467380893044633e-01,-9.009951015596708856e-01
5.475999999999999801e+01,-6.302828007794473997e-02,9.111358588625600996e-02,9.835658223226801056e+00,3.519325479980682514e-02,-3.393727400239920367e-01,-6.858012688595774287e-02
5.477000000000000313e+01,-1.758055191437197795e-01,-9.306330918442907996e-02,1.001716592932753080e+01,3.410340215924393542e-02,1.233272235924155330e-01,-1.028137903174718870e+00
5.478000000000000114e+01,-1.219185827765194852e-01,-2.798591005894675576e-01,9.881454502799517314e+00,3.384248434671952577e-01,3.225143587452949379e-01,1.555044846886033949e-01
5.478999999999999915e+01,-1.042379794980345838e-02,5.377407493360621127e-02,9.821746628055535666e+00,-1.004586610787749079e-01,3.759140456394326479e-01,-4.984457622659204112e-01
5.479999999999999716e+01,-7.868066568963849594e-02,9.150084339237124498e-02,9.735869885637312038e+00,5.611611412532418325e-02,7.609062128374843859e-02,4.435968774404218662e-01
5.481000000000000227e+01,-7.844960723895350041e-02,-1.594332751811468607e-01,9.779088573961645992e+00,-3.959173552108943145e-02,5.284286407262558547e-04,-7.165942984835398100e-02
5.482000000000000028e+01,1.799251045686195427e-01,-2.020390876284207902e-03,9.923267980450935610e+00,1.836528829222893178e-01,-2.346552884130396199e-01,2.043510311167739402e-01
5.482999999999999829e+01,8.588947966598731165e-02,-4.980409777484647027e-02,9.729725746616091797e+00,7.907079760999385920e-02,-3.008836022724452608e-01,-6.351397105402355192e-03
5.484000000000000341e+01,-2.520759659099735053e-02,1.286294296419311645e-02,9.963508897931092179e+00,-9.257497003493353471e-02,2.450760333716069939e-01,-1.921466273101222200e-01
5.485000000000000142e+01,6.720349456554419731e-02,-2.068455008353523861e-01,9.892888848082476372e+00,-2.175303941905029279e-02,2.327931348465979433e-02,-1.033928489602616990e-01
5.485999999999999943e+01,-4.202686055909007901e-02,-1.267316596054006428e-01,9.694915731471709819e+00,8.810315492489724509e-02,3.462996788695804073e-01,-6.405274315441576993e-01
5.486999999999999744e+01,1.107234341864965152e-02,4.487298895066509780e-02,9.957509379369087199e+00,-2.097744628831091918e-01,-1.549127763525788397e-02,9.102359453116234400e-01
5.488000000000000256e+01,4.416286484189160116e-02,-1.332200565070841558e-02,9.677944681707160157e+00,1.138136028337275452e-01,-6.772065584112117731e-02,-5.431632951089055972e-01
5.489000000000000057e+01,-4.176059677718786667e-02,1.504515862784378544e-01,9.649068807878592224e+00,-1.750636818208689272e-01,1.867207737693567238e-01,4.854239590984850417e-02
5.489999999999999858e+01,-6.852505475370956889e-02,5.885494654165118050e-02,9.874879438828052969e+00,2.198444621153055056e-01,3.594070739082207838e-02,-3.846383227163158169e-01
5.490999999999999659e+01,1.223931818468503990e-01,-9.630111535464630501e-02,9.906458318843645472e+00,2.245809486354369833e-01,1.077888019994116126e-01,3.957776229775017418e-01
5.492000000000000171e+01,6.141129671981065963e-02,7.194026287636302863e-02,9.780074535645997713e+00,-3.009207196144881302e-01,-8.329102820955018582e-02,-3.842817074144100897e-01
5.492999999999999972e+01,-2.254610878292717391e-01,1.708429932974154519e-01,9.734252372014452703e+00,8.346669856744307059e-02,-4.896708595690368176e-03,-4.688014796561665309e-01
5.493999999999999773e+01,-6.681359300316101757e-02,-7.227681360088177714e-03,9.790632911950980954e+00,-5.628826466045227378e-02,2.662235298475315592e-01,-2.039331560846072700e-01
5.495000000000000284e+01,-7.812724996943938571e-02,4.028077054164935777e-02,9.841717524771334880e+00,-8.688878962309982967e-02,-1.063556046964396345e-01,-5.679161169370662288e-01
5.496000000000000085e+01,-6.211380888123978899e-02,8.253810052152363297e-02,9.821892233906210024e+00,-1.732200119922091761e-02,2.940247616074386783e-01,-1.236415087986355799e+00
5.496999999999999886e+01,8.624022887588952968e-02,-1.668213948148202647e-02,9.739557765263967326e+00,2.616764050130656813e-02,4.663825716959260070e-01,9.392953764245333403e-02
5.497999999999999687e+01,1.920596800369154524e-03,-2.115174590628879359e-01,9.686473709523690800e+00,-3.426306436970063540e-01,1.272115663774287253e-01,-1.796213181332342035e-01
5.499000000000000199e+01,-1.389629670855545562e-01,5.558882928895880760e-02,9.773423293515531185e+00,-3.956094664405548356e-01,-1.149571137635505835e-01,-2.330013387403949698e-01
5.500000000000000000e+01,-3.832148369586158010e-02,7.997571119439482457e-02,9.710674249283037796e+00,2.757031596532248940e-01,-1.025236302664803978e-01,7.266858540901542929e-01
5.500999999999999801e+01,5.417376476161898241e-02,1.463159578326315435e-01,9.854347162210792987e+00,-1.912730307036675584e-02,9.443098471218469570e-02,8.726264667443823786e-01
5.502000000000000313e+01,-2.196450155337543661e-02,-1.100240551721586857e-01,9.925162642761886644e+00,-2.092703930046450195e-02,-1.794775766102058301e-01,-6.709478579794152520e-01
5.503000000000000114e+01,-6.446759511634914119e-02,-1.054061692403062411e-01,9.751935949467117837e+00,-1.783280347363430662e-01,2.071422306388801537e-01,-3.495285210233249340e-01
5.503999999999999915e+01,3.312192787385283971e-02,-6.890781332764409073e-02,9.902797634660160497e+00,-7.048272136654336328e-02,5.476558783822985110e-02,4.008178077773383863e-01
5.504999999999999716e+01,1.618192489439077286e-01,-1.679138840354995818e-02,9.969653818730449757e+00,-2.188251313023674705e-01,-2.369900090679407934e-01,-5.085383842237769514e-01
5.506000000000000227e+01,4.614248329585187575e-02,5.383993576395518232e-02,9.739262283076655535e+00,-5.051975764332652941e-02,-2.797631314697984761e-02,-5.344672678350903539e-01
5.507000000000000028e+01,1.300941513031698971e-01,-1.121100293031954132e-01,9.845299843445991073e+00,-5.919419993463632956e-02,3.441438702356035967e-02,-4.035823746126485090e-01
5.507999999999999829e+01,-5.776142178649032455e-02,9.492557324628451976e-02,9.811993827594038819e+00,-7.554071731390116229e-02,-2.213939244808533491e-01,2.950791964958799363e-01
5.509000000000000341e+01,-8.362111124060726298e-04,8.988003548828686629e-02,9.697176544187202651e+00,-6.567244256536580033e-03,-3.440224896779305319e-01,-4.401899225484973699e-01
5.510000000000000142e+01,-2.855198453568226144e-03,9.273728639132314266e-02,9.810093269967726570e+00,-3.128408868630688094e-02,1.541448441030562888e-01,-2.161347459291731304e-02
5.510999999999999943e+01,1.186790840676912179e-02,-3.103215872333545122e-02,9.765539025662679506e+00,1.523414868063528438e-01,1.171070459773487227e-01,-2.846449626821584977e-01
5.511999999999999744e+01,4.405196063809160845e-02,-2.235015120391965482e-01,9.755446235099384467e+00,2.181331604820770931e-01,-2.647122695281369231e-01,-7.338076598426881980e-02
5.513000000000000256e+01,-9.189691210547781819e-02,1.601280713483948515e-01,9.785390680371277128e+00,1.757735050448101799e-02,-6.381394012747580724e-02,7.713195092586687673e-01
5.514000000000000057e+01,6.473326855134785285e-02,-5.928878691505071880e-02,9.758116763716397912e+00,-1.562489034786065378e-01,6.087738314273773987e-01,2.512039379636603065e-01
5.514999999999999858e+01,-1.627885938955216938e-01,7.176152856728044982e-02,9.942373283364505099e+00,2.828018245369597408e-02,1.811585731128181054e-01,4.680635962767207836e-01
5.515999999999999659e+01,-1.335756662506681625e-01,1.216819265099274711e-02,9.602425227169668176e+00,-1.039948552447958197e-01,-1.639806199018543631e-01,-5.042034806525900192e-01
5.517000000000000171e+01,2.135626101173230540e-01,1.128734020943349958e-01,9.717425887913174520e+00,1.034382045882354523e-01,1.349508034869644768e-01,-1.678293506979390837e-01
5.517999999999999972e+01,-5.101207394788760674e-02,-5.129411093247612276e-03,9.801904759487506169e+00,-3.797317183015163078e-01,-1.673880831237586075e-01,3.564989830358922251e-01
5.518999999999999773e+01,7.295193509862021863e-02,6.877174698969191341e-03,9.725908623916902584e+00,-3.578754611969071214e-02,2.024131971492605375e-01,4.477738998729290376e-01
