t,ax,ay,az,gx,gy,gz
8.159000000000000341e+01,8.571303317527184662e-02,-2.538645431274520470e-01,9.895504242152597385e+00,2.019676916711956316e-01,-1.018769127367951388e-01,-1.550317720026965951e+01
8.159999999999999432e+01,-3.137287230598476834e-02,-2.659279367147373563e-01,9.966554434741230040e+00,-1.423619846109435982e-01,-5.315736350849847858e-02,-1.536779670624825300e+01
8.160999999999999943e+01,-2.596524082946944506e-02,2.494861121915548097e-06,9.801017555075482335e+00,-1.229406522866422213e-01,1.253362375176666765e-01,-1.467681185244589948e+01
8.162000000000000455e+01,2.097695189005326366e-01,-1.445947233555468503e-01,9.896525422159344387e+00,-2.811140984335551707e-01,7.331704368710854902e-02,-1.524033808160893244e+01
8.162999999999999545e+01,5.973033668315189809e-02,-3.614269877327649927e-02,9.912899320823560956e+00,1.107618979179466057e-01,2.095588782665924465e-01,-1.492744371764035094e+01
8.164000000000000057e+01,-6.385020242772083965e-02,-1.597159855424772068e-01,9.737985295034032873e+00,1.675640825582999094e-01,-3.540076589766501247e-02,-1.481692688929553015e+01
8.165000000000000568e+01,6.453806300972237016e-03,-1.650789488314767517e-01,9.729628820078184859e+00,-5.185483649206736045e-02,-5.131527489483133503e-02,-1.569429779972194616e+01
8.165999999999999659e+01,3.661992635822293451e-03,-3.268871453097649260e-02,9.926586344792431404e+00,-1.957836372150064674e-01,-1.906440482827942429e-01,-1.493668135915398842e+01
8.167000000000000171e+01,1.686093154338994260e-01,-1.293874069724193776e-01,9.742861182060234881e+00,2.640766779827515287e-01,-3.805459978922092010e-03,-1.571451219661527787e+01
8.168000000000000682e+01,3.946058046410457626e-03,-1.304882079827269781e-01,9.790319944093608839e+00,2.843647396773218636e-02,-3.816684088866467151e-01,-1.498794714163878261e+01
8.168999999999999773e+01,2.207998653330968120e-01,-2.071941308860667519e-01,9.855419939291044429e+00,-2.979563500680537311e-02,-1.571259941429807294e-01,-1.503572273938669213e+01
8.170000000000000284e+01,-1.296732697420039659e-01,-7.952470130468497489e-02,9.724244010293572771e+00,1.967067021077532341e-01,-2.937934077157746196e-02,-1.521429905527404358e+01
8.170999999999999375e+01,-3.235275367069412322e-03,-1.740929630430335662e-01,9.800389156091359411e+00,4.019247758320658170e-01,-3.204151523484677355e-01,-1.537213807366166307e+01
8.171999999999999886e+01,-7.628554421965549892e-02,-2.221736289136872766e-01,9.850925148370286877e+00,4.092279621820182206e-02,-8.424519786703736635e-02,-1.501650615843789360e+01
8.173000000000000398e+01,-4.948286054196252004e-02,4.858199109276967187e-02,9.628432137370417365e+00,1.187127853823628093e-01,2.917243647384851757e-01,-1.508999202559414066e+01
8.173999999999999488e+01,-4.731215046093557169e-02,-1.966275365044056200e-01,9.825251673545071895e+00,1.864068183008299462e-01,1.602400475619703835e-01,-1.594427576365875865e+01
8.175000000000000000e+01,-7.113066799988769506e-02,-2.457029766072437449e-01,9.678180320739494746e+00,-1.981923646720393783e-01,5.992094882745707674e-02,-1.527839873666688675e+01
8.176000000000000512e+01,1.730171804985621564e-01,-5.292377442007809019e-02,9.768475813094225302e+00,-4.254915359340885606e-01,6.790537671137091003e-02,-1.500225841035920205e+01
8.176999999999999602e+01,1.422560328842513988e-01,-9.879419716264409290e-02,9.798803508337885049e+00,7.800946236348871299e-02,1.011581048083446399e-01,-1.510045280833959147e+01
8.178000000000000114e+01,4.026445114641222234e-02,-2.329550668424699156e-01,9.603944993770076266e+00,8.882019375931547722e-02,3.022332068799267191e-01,-1.457055714469325558e+01
8.179000000000000625e+01,-4.743518948893710868e-02,-1.745517895382033557e-01,9.776423926193695380e+00,2.068624128333919343e-02,-4.605850922951772175e-02,-1.461748428362347241e+01
8.179999999999999716e+01,-6.832330427776880932e-02,-9.977419946431252684e-02,9.668666487676874866e+00,1.150595179872401508e-01,2.414149520459585307e-01,-1.541648369933419893e+01
8.181000000000000227e+01,7.418087414777685407e-02,-1.455364404567593417e-01,9.668115089331188017e+00,1.506602550215710434e-01,1.480590050753405884e-01,-1.459739036205632878e+01
8.181999999999999318e+01,3.001509512361751064e-02,-8.806713245886201025e-02,9.809525670071201020e+00,-7.538519350941071118e-02,-6.621026243498174223e-03,-1.541451292961166608e+01
8.182999999999999829e+01,-1.448259535995851527e-02,-1.673251568595404137e-01,9.914181812457176335e+00,1.807915202791964340e-02,-3.198430536473848007e-02,-1.600504806716307016e+01
8.184000000000000341e+01,5.411930073004309061e-02,-8.485870135528625346e-02,9.888895826143608403e+00,-2.749378832119789839e-01,4.835131215454120668e-02,-1.532233977775379685e+01
8.184999999999999432e+01,8.910705409104918706e-02,-1.975589554414575177e-01,9.743334787666890762e+00,1.979090270170801302e-01,1.140407400654135373e-01,-1.559703653281276026e+01
8.185999999999999943e+01,-1.540400300269722383e-02,-2.312608403155958503e-01,9.696381347073055323e+00,1.349072276460189512e-01,-3.199895161003427947e-03,-1.551898523808183228e+01
8.187000000000000455e+01,-7.873259126880789716e-02,-6.136614101875607907e-02,9.791881752589887355e+00,-1.986486931967693381e-01,4.086744291706707194e-02,-1.473441573263787419e+01
8.187999999999999545e+01,-1.321115666827012147e-01,-1.375582617579212963e-01,9.888342730301372896e+00,-9.900465933919540273e-02,-3.874213751859795218e-02,-1.498717394847540518e+01
8.189000000000000057e+01,2.506316743414634118e-02,-9.797045604319226664e-02,9.857163424860345913e+00,-1.070054579363910463e-02,1.843122722624324639e-01,-1.521008054913449037e+01
8.190000000000000568e+01,2.167245973132994608e-01,-4.423357344882630771e-02,9.710208678999872944e+00,2.750707491300025120e-02,-9.816715507821878461e-03,-1.538102626730590217e+01
8.190999999999999659e+01,-1.110663269951243787e-01,-2.239235168804676879e-01,9.767426290505403230e+00,-1.416895274575922237e-01,3.013088146393887445e-01,-1.405444356086108293e+01
8.192000000000000171e+01,1.099469081034057383e-01,-1.134289138381025241e-01,9.734177605868534755e+00,6.528612705717821985e-02,-1.654009188963043164e-01,-1.455986543047263027e+01
8.193000000000000682e+01,-6.755561593467891701e-02,6.533253545859207811e-02,9.535482458789413585e+00,2.291441102494979065e-01,-2.258911156225186512e-02,-1.523974387257866425e+01
8.193999999999999773e+01,-4.740315359130864437e-02,-1.826798952316247837e-01,9.919695116854191141e+00,-2.238770981330217846e-01,-1.027527321607143440e-01,-1.475049493221291641e+01
8.195000000000000284e+01,9.149234801178313115e-02,-2.873058830117395379e-01,9.866166141317840754e+00,-4.047675958581029576e-01,1.357662241326584862e-01,-1.411753170033808757e+01
8.195999999999999375e+01,-2.552581566621963186e-02,-8.446248457521275677e-02,9.961568155879948705e+00,1.735615521521126081e-01,6.799334560172375086e-02,-1.414683533018138029e+01
8.196999999999999886e+01,2.482597964904795229e-02,-3.331450146272636470e-01,9.947537993806726320e+00,-4.375665091812816487e-02,-1.263882725231519066e-01,-1.530828944330808739e+01
8.198000000000000398e+01,2.290947562123644282e-02,-2.764312225553541280e-01,9.827845282603998811e+00,-7.179090278054130192e-02,3.735856402877448801e-01,-1.501883430979797396e+01
8.198999999999999488e+01,-6.739476617634077016e-02,-1.660450137312842189e-01,9.912769414771263499e+00,-2.106260528873765137e-01,1.287754576933131112e-01,-1.453263807492017357e+01
8.200000000000000000e+01,8.950975559201984622e-02,-1.695419778628654006e-01,9.785044006789352267e+00,1.565179461561813090e-01,4.629660494488663236e-02,-1.407541982480297982e+01
8.201000000000000512e+01,-6.158218723279079015e-03,-1.478447607975705014e-01,9.842858444114638061e+00,-3.364440169743031506e-01,-2.419446085904551902e-01,-1.454365882808668253e+01
8.201999999999999602e+01,-1.388510248917241563e-01,5.402157897751705407e-02,9.757511315720357459e+00,3.520209121305853395e-02,1.286985361360656055e-01,-1.513852459912959958e+01
8.203000000000000114e+01,-8.924840191326041672e-02,-1.582053605544372077e-01,9.811814427309219155e+00,3.888036878558689957e-01,-2.944199365468763152e-01,-1.658597374063623775e+01
8.204000000000000625e+01,-3.116652847459891462e-01,-2.244033577079649899e-01,9.869696400782357770e+00,9.935319042487886221e-02,-4.997635054060370341e-01,-1.494670900033642447e+01
8.204999999999999716e+01,5.199203217464449557e-03,-2.307807904161718882e-01,9.875336751059730744e+00,2.391899343699424585e-01,2.898582984610375765e-02,-1.533358845418799810e+01
8.206000000000000227e+01,1.304066463348836913e-01,-2.122766933565546355e-01,9.580413024155099322e+00,1.872199962437030019e-01,3.858586266018883965e-02,-1.492256753254034329e+01
8.206999999999999318e+01,-1.047149827779957354e-01,-2.880366791556182582e-01,9.896036881564878485e+00,1.276681688226902200e-01,-1.100103402157469185e-01,-1.501204123871842455e+01
8.207999999999999829e+01,5.855382583384950712e-02,-1.106611132234177619e-01,9.689992697773780250e+00,-2.283886939481072909e-01,2.711428819805545287e-01,-1.466789053521211805e+01
8.209000000000000341e+01,4.305673840619083509e-02,-1.364964714778596211e-01,9.757848862801816736e+00,2.265474388327194666e-01,-1.645880395399288432e-01,-1.445162485863593993e+01
8.209999999999999432e+01,-7.518775255875076446e-02,-1.199902323725713649e-01,9.634653237570113049e+00,-3.976639995563139296e-01,-1.717294205300149978e-01,-1.515015198464634771e+01
8.210999999999999943e+01,1.536534156318169753e-01,-8.659853792964065933e-02,9.745517717614454511e+00,1.356746877874121827e-02,-2.657872659183678210e-01,-1.547381456150631962e+01
8.212000000000000455e+01,-2.726604402249168183e-02,-1.047395698911098849e-01,9.949392442423075522e+00,-2.172982597241710501e-01,-1.034639304186623504e-02,-1.481277542186487040e+01
8.212999999999999545e+01,2.010268379836553376e-01,-3.048138964681107455e-01,9.847792205604944726e+00,-7.280442725259976544e-02,4.447976779340888365e-02,-1.469373288591943805e+01
8.214000000000000057e+01,-1.635678969000222138e-01,-1.947894479888672981e-01,9.823928518731705140e+00,-3.254606049693522518e-01,1.063582671673438118e-01,-1.479716909631738275e+01
8.215000000000000568e+01,-2.691355515912427498e-02,-1.906709485838583018e-01,1.000376466813488818e+01,4.346987902287746328e-03,2.655317087062846262e-02,-1.387735985300789388e+01
8.215999999999999659e+01,-1.502520240166568127e-02,-2.894089093467394624e-02,9.739383611984642641e+00,-1.776451160232455362e-01,-1.658505455629765979e-01,-1.498686347447002021e+01
8.217000000000000171e+01,-4.061302132068110061e-03,-2.015560483435932526e-02,9.833993697810580414e+00,-1.595875544319108738e-03,3.010858497542194812e-01,-1.484324673155004071e+01
8.218000000000000682e+01,7.163309842882809031e-02,-2.092685692777744855e-01,9.929271569871202630e+00,-1.046511384298278724e-01,-2.539041097923419033e-01,-1.446184592103690925e+01
8.218999999999999773e+01,3.398127317662900104e-01,-2.657946860274482681e-01,9.901576844471270178e+00,1.707617048156390149e-02,-3.846951870980144239e-01,-1.465928587629288060e+01
8.220000000000000284e+01,4.550661535347574199e-02,-1.508138725831011107e-01,9.875427912920095253e+00,-3.507168435443574483e-01,-3.643170353707899656e-01,-1.463462180307391769e+01
8.220999999999999375e+01,2.424024262547708284e-03,-1.985377833605058706e-01,9.922915580264479729e+00,-3.892296285216180207e-01,-2.024888050017918939e-01,-1.517994001286364814e+01
8.221999999999999886e+01,-1.096199523567522038e-01,-1.750226176515359555e-01,9.900237895161234647e+00,8.831935026922393961e-02,2.743405992969751295e-01,-1.525600808950171583e+01
8.223000000000000398e+01,-1.890106472653753922e-01,-4.510653171836391528e-02,9.874830320387063765e+00,-1.555942592815233450e-01,5.680227718473460086e-02,-1.497425826301327234e+01
8.223999999999999488e+01,1.170260831368087617e-01,-1.397791654431898289e-01,9.689475055567713824e+00,-3.906754259190514666e-02,-3.004017634579862484e-01,-1.564317765580005926e+01
8.225000000000000000e+01,-5.467841559157098769e-02,-2.146517528513242346e-01,9.817139472066179096e+00,2.077059771380834752e-01,1.049742165360005031e-01,-1.477430691716074307e+01
8.226000000000000512e+01,2.604158353245615287e-01,-2.325502870883008610e-01,9.917482189017901462e+00,-2.567907244357590102e-01,2.810122072759722173e-02,-1.510218567861407024e+01
8.226999999999999602e+01,8.682116183855558000e-02,-3.102697318785159752e-01,9.741736231351858066e+00,5.099506733318779489e-02,3.785345236655985879e-01,-1.447466020341085269e+01
8.228000000000000114e+01,3.415594734479631550e-02,-1.104261208764167890e-01,9.741600440858718457e+00,2.728647326458144007e-01,2.973834534244274574e-01,-1.468783855945896200e+01
8.229000000000000625e+01,3.941288958921099206e-02,-1.384481653943986090e-01,9.816686066542336775e+00,3.220242448579955230e-01,1.717691305631578735e-01,-1.495364649054060635e+01
8.229999999999999716e+01,4.039767650554654949e-02,-1.103165620879401065e-01,9.917533219200633354e+00,-1.936196185202857245e-01,-4.653290384086166132e-01,-1.506449855369900881e+01
8.231000000000000227e+01,-6.945669453637701163e-02,-1.683453022207236360e-01,9.728504680857279041e+00,4.552637900730142906e-02,-1.728899559804294717e-01,-1.506863821361005762e+01
8.231999999999999318e+01,-1.751502703820350948e-01,-2.722889678240874023e-01,9.738165159231947143e+00,7.456069580523105866e-02,-1.969152837685010093e-01,-1.549144982685499627e+01
8.232999999999999829e+01,-5.506851265158396042e-02,-1.610976212427450982e-01,9.625064683964440704e+00,-1.717578573723856916e-01,2.462581353415262131e-01,-1.491708618683828291e+01
8.234000000000000341e+01,-1.835622419373694487e-03,-5.271771166164848643e-02,9.730474998435576950e+00,3.879142221247090794e-02,-1.018961128299915447e-01,-1.541150651650732151e+01
8.234999999999999432e+01,-6.478173012280895315e-02,-1.608420834772833763e-01,9.888707420400654868e+00,-1.456086783959689712e-01,3.355552763876896161e-01,-1.517233541386795714e+01
8.235999999999999943e+01,-1.286083549959948502e-01,-2.397926746622647265e-03,9.729849599664406767e+00,-3.685280825940502325e-01,-1.978128357905273305e-01,-1.525809842876749833e+01
8.237000000000000455e+01,-7.482103149624749761e-02,-1.414416770454824390e-01,9.704821870091761227e+00,-1.927306983155832598e-02,1.335959713204112886e-01,-1.501538394644214236e+01
8.237999999999999545e+01,1.035732466972941329e-01,3.010248692258093994e-02,9.774252963842563702e+00,1.153991817193018854e-01,-2.746714595381119506e-01,-1.460149979753275318e+01
8.239000000000000057e+01,7.481957843941472452e-02,3.823331754832812179e-02,9.772218637463017998e+00,-7.965191873764959629e-02,3.843174766030822420e-01,-1.514330271832463914e+01
