t,ax,ay,az,gx,gy,gz
2.168000000000000114e+02,-1.654636764239811320e-02,3.511426101925402832e-01,9.912648680575644633e+00,3.078689426743903557e-01,1.155272373482240343e-02,1.465433947292800099e+01
2.168100000000000023e+02,-5.628291493608575391e-02,-3.727944015734507843e-03,9.791669386455581048e+00,-3.611439206174524852e-01,2.354468366651721323e-01,1.547680438631703836e+01
2.168199999999999932e+02,-1.656738454144503214e-01,1.748233468207425478e-01,9.757401090266700550e+00,-1.897851966670213442e-01,1.051018216894501756e-01,1.518597340202085988e+01
2.168300000000000125e+02,6.336679412485578256e-02,1.936554116008324944e-01,9.931257703838035411e+00,-1.254621485208332055e-01,-3.160026534417721966e-01,1.512047696906482308e+01
2.168400000000000034e+02,-8.932327835266920535e-02,1.378573122288431763e-01,9.792130637614768318e+00,9.290450022452785561e-02,-1.407649952255199677e-01,1.455869042716723349e+01
2.168499999999999943e+02,1.462476216394175133e-01,1.025447380201659903e-01,9.917113988850255524e+00,-1.307086611179118507e-01,2.072869861508822853e-01,1.526081647461384883e+01
2.168600000000000136e+02,-3.689325909740304860e-02,3.231152637916151482e-01,9.845419948438808078e+00,-4.383928905042371871e-01,3.306696621049070584e-01,1.456419348304373962e+01
2.168700000000000045e+02,-5.165189338756034920e-02,1.143689311787668694e-01,9.780442270843114017e+00,1.320161017671842296e-01,1.521540111773659609e-01,1.503628986799191125e+01
2.168799999999999955e+02,-4.714913004787184281e-02,3.649237215605858342e-01,9.527204209578824745e+00,-8.263776139554987465e-02,1.136288531458492373e-01,1.512779505791660561e+01
2.168899999999999864e+02,1.501908371551925574e-02,1.004691977739821523e-01,9.782813170624541144e+00,-4.048299928489380861e-03,2.154578612969543228e-02,1.551381128394038278e+01
2.169000000000000057e+02,-8.664215698823531098e-02,2.438609689299104100e-01,9.885942880091050711e+00,2.023374346138522295e-01,3.248496679671131204e-01,1.500449165471138357e+01
2.169099999999999966e+02,-6.751966693136414455e-02,2.501978921108088949e-01,9.733919912723560941e+00,3.219631458770235710e-01,3.408544065817930013e-01,1.513902984355457093e+01
2.169199999999999875e+02,6.223557982088726709e-02,1.003756291577746901e-01,9.667709511887167650e+00,7.883571158328102346e-02,-1.751999291195034947e-01,1.553476632013136083e+01
2.169300000000000068e+02,-1.017716360495219963e-01,-1.115857101446324218e-02,9.834418020105575309e+00,-1.186035939796759378e-02,1.028403785758095490e-01,1.457741834041621232e+01
2.169399999999999977e+02,5.482277197510132538e-02,8.074270647235851084e-02,9.740663846991322927e+00,6.107297002795925023e-02,2.821731210126205425e-01,1.456767187475944247e+01
2.169499999999999886e+02,8.274640850213349497e-02,4.872585625211212079e-02,9.668015687598545682e+00,-2.438553309623201493e-01,-2.325802226091304714e-01,1.541726911739981887e+01
2.169600000000000080e+02,6.676398755133396146e-02,2.490603041595214617e-01,9.948757393001487870e+00,-1.903864168777074095e-01,6.916422675896119476e-02,1.494381659723251232e+01
2.169699999999999989e+02,2.336253736541585302e-02,1.287483175896924625e-01,9.825606686334166895e+00,2.845034837378790024e-02,-3.576960144392073992e-01,1.555820818956357243e+01
2.169799999999999898e+02,-1.804172654594718983e-01,3.040694318960184273e-01,9.876930216946316676e+00,-1.259788154452446685e-01,3.658909168609809637e-01,1.470047175501859016e+01
2.169900000000000091e+02,-1.210715799577454094e-01,2.239491073156423262e-01,9.727873286003944742e+00,-7.248829873508258817e-03,1.709735351565030981e-01,1.494580382136152075e+01
2.170000000000000000e+02,-1.355375884325145108e-01,1.474180914923441943e-01,9.790986572786307462e+00,-6.212443750170260071e-02,-3.659510681144826361e-01,1.457241108697065002e+01
2.170099999999999909e+02,-3.783775747272511564e-02,1.750456328083768720e-01,9.885862309272862802e+00,-9.686720198108931396e-03,-3.869518118084513264e-02,1.476414520715784029e+01
2.170200000000000102e+02,3.124112297794752469e-03,3.395428877152426028e-02,9.772600765935004929e+00,-2.623400219918916795e-02,1.345103889085743493e-02,1.466329123093926334e+01
2.170300000000000011e+02,-1.191081831684841774e-01,1.472322950874375425e-01,9.584885929776016056e+00,-2.350058751070009666e-01,3.781426478723329959e-02,1.464532969723432032e+01
2.170399999999999920e+02,-1.726773370293292406e-02,1.810195296995147918e-01,9.774916567948642054e+00,8.489084853921155180e-03,-8.429852146495020460e-02,1.473599022832228833e+01
2.170500000000000114e+02,6.842044071306663255e-02,1.282351555808429466e-01,9.801596789841864776e+00,3.361865959233654166e-01,-2.320960365628106925e-01,1.534106560594737090e+01
2.170600000000000023e+02,-9.987259287436792143e-02,1.103889471687117541e-01,9.878558844178932929e+00,-4.575031170505699518e-01,4.176840315155013750e-01,1.570394467598642052e+01
2.170699999999999932e+02,-8.184576733140416782e-02,2.672177894182699021e-01,9.812754511564651949e+00,1.173172206075495660e-01,-8.414628585456351839e-02,1.489003702871203316e+01
2.170800000000000125e+02,1.180959498854198264e-01,7.234191132400684399e-02,9.760753947424619881e+00,2.388561833473050455e-01,1.540819425325010705e-01,1.498733185244126531e+01
2.170900000000000034e+02,-9.273002149251985404e-02,2.251452751651198403e-01,9.741597228540205933e+00,7.776570922687753296e-02,-2.547643628189032450e-01,1.533491089182443545e+01
2.170999999999999943e+02,3.422751414605761794e-02,2.766817546683391082e-01,9.916828564473462393e+00,-9.555414465909395361e-02,-1.438017318215345230e-01,1.497432958132661973e+01
2.171100000000000136e+02,1.239255329463499616e-01,2.161420312771399899e-01,9.921533054545777830e+00,6.242329601060392363e-02,-1.782771188881106528e-01,1.518433505391300820e+01
2.171200000000000045e+02,-1.181494255571218094e-01,4.624322038838493687e-02,9.665533512278956962e+00,-1.183490764419174593e-03,3.874621809030786013e-01,1.467546247178742291e+01
2.171299999999999955e+02,-1.106682024825058203e-01,1.780762305288456082e-01,9.864100688257083860e+00,-2.354927949293241785e-01,-5.911314436955161095e-02,1.479446839673429892e+01
2.171399999999999864e+02,-2.314810695710949051e-02,2.560130086451434805e-01,9.671144539343291768e+00,-1.601014947439793612e-01,9.630144239966949293e-02,1.524177669419037429e+01
2.171500000000000057e+02,6.760029623244934692e-03,1.377915002644939935e-01,9.904758115955598186e+00,7.550103270631866592e-02,-1.333108043028093104e-01,1.529727894776192976e+01
2.171599999999999966e+02,-6.416049510566150527e-02,8.131430261353225775e-02,9.846768645063431080e+00,2.918951530203260369e-01,1.623009723853040612e-02,1.533950619172551733e+01
2.171699999999999875e+02,1.971282539514267462e-01,7.781773524641269479e-02,9.918083830801307954e+00,-3.587656540195456878e-01,3.341431331237710300e-01,1.488088499794913666e+01
2.171800000000000068e+02,5.386265831632292000e-02,1.988559486584353664e-01,9.865813140698488581e+00,1.269658323761931606e-01,3.417617809626567471e-01,1.558822538993694096e+01
2.171899999999999977e+02,-8.043122644488853723e-02,1.334217349551448939e-01,9.643564475747213649e+00,-1.911302705645727962e-01,1.964396222277682291e-01,1.502898403345804290e+01
2.171999999999999886e+02,-1.366007916170260683e-01,1.048610527075264365e-01,9.836856144919009282e+00,-2.489980587309663651e-01,4.031433022348922257e-02,1.587899754946842279e+01
2.172100000000000080e+02,-6.300255095660524905e-03,-4.321138619780370838e-02,9.931948586927754619e+00,-1.757020039955187463e-01,-1.060247964811080607e-01,1.502227723157535877e+01
2.172199999999999989e+02,4.388383019344680586e-02,3.469953606183313610e-01,9.949665909173674549e+00,4.275064758944320531e-02,-2.081001362475698793e-02,1.529056411157318252e+01
2.172299999999999898e+02,1.840454521257899323e-01,1.352376420741008278e-01,9.677058846142978510e+00,-1.000104679107214206e-01,-9.087404879803395730e-02,1.465228935588089598e+01
2.172400000000000091e+02,7.581476765732446388e-03,2.480740618781914764e-01,9.750267958920373346e+00,-7.301561782062775119e-02,-8.904890832885564711e-02,1.426624392109685857e+01
2.172500000000000000e+02,-2.428889628260570352e-02,3.005054677983285405e-01,9.930502783585964721e+00,-5.421731312379823864e-02,-6.492306086191262926e-02,1.549522863314296472e+01
2.172599999999999909e+02,-9.765724788143244350e-02,5.072310458277705658e-01,9.819871018711404886e+00,2.156078879707488682e-01,-9.924128282580040039e-02,1.508764563092537081e+01
2.172700000000000102e+02,3.703826380050328354e-02,2.348555555950437856e-01,9.891325678383978470e+00,-1.846147885990550574e-01,-2.196463140343309917e-01,1.543928260394161889e+01
2.172800000000000011e+02,1.016691862850490902e-01,2.001825044459074610e-01,9.826376764144264087e+00,2.725960436508410578e-01,-1.640621722986664588e-01,1.550811969255922307e+01
2.172899999999999920e+02,-1.787366575066448027e-01,1.168879061549363274e-02,9.689884204539039203e+00,3.676526663420068286e-01,-2.046805237683829160e-01,1.579756492203335760e+01
2.173000000000000114e+02,7.469128423228318936e-03,-3.601768934116447718e-02,9.857329735656595204e+00,-1.823056384063578839e-02,-3.459569222085131512e-01,1.539228430000952130e+01
2.173100000000000023e+02,-1.020149380956736351e-01,-7.202958457302247042e-02,9.955128284106422143e+00,2.007756890619759663e-02,-5.731900480155954769e-02,1.520386846318792706e+01
2.173199999999999932e+02,-1.357556946455414915e-01,1.497333547406700383e-01,9.769900825805670763e+00,2.879367452444393516e-01,-2.545721404442783942e-01,1.466285069128578655e+01
2.173300000000000125e+02,1.693984633777544380e-01,6.686516064908251678e-02,9.817142925671765497e+00,6.996317845992097717e-02,9.747328216172973514e-02,1.468172530495800387e+01
2.173400000000000034e+02,8.872964225375415404e-02,1.181072238432897270e-01,9.591891738537501766e+00,1.435201808350468067e-01,-1.480246231613202568e-01,1.476789138459614392e+01
2.173499999999999943e+02,-6.062225485856359564e-02,3.104032122449774667e-01,9.750507805591464461e+00,2.400171126825660639e-01,-1.647012908434660750e-01,1.449672717404568090e+01
2.173600000000000136e+02,-1.614728170183348313e-02,2.183425654046613484e-01,9.820021354718551976e+00,-1.557204615088506744e-02,3.709951628216226482e-02,1.564687629633367649e+01
2.173700000000000045e+02,-3.172849158588839785e-02,1.652848442206621138e-01,9.784764987319755747e+00,1.013380880233002435e-01,9.596744851559897704e-02,1.453328616383046779e+01
2.173799999999999955e+02,-1.125627112056832024e-01,1.862272011219258117e-01,9.759000571375933575e+00,-1.646731107950450967e-01,2.330223918801976601e-01,1.549280903453126967e+01
2.173899999999999864e+02,-5.408006917055673685e-02,9.700209217031474651e-02,9.702320890667493813e+00,6.881823375786333408e-02,-1.773247396738436565e-01,1.517161211295749190e+01
2.174000000000000057e+02,7.839703262379904558e-02,1.187867784218900741e-01,9.654243174411995199e+00,-1.679728480102462007e-01,7.024483350362047129e-02,1.421383577587587510e+01
2.174099999999999966e+02,-5.658074612354137278e-02,2.836765107318858781e-02,1.001239031312363181e+01,-6.345839360851444899e-02,7.522759325824186771e-02,1.508853801742435508e+01
2.174199999999999875e+02,4.640285391806819176e-02,2.444043488279794563e-01,9.891782767745187499e+00,1.970797572333419234e-01,1.891984219320204941e-01,1.489628962149824964e+01
2.174300000000000068e+02,-5.580593603172669115e-02,3.437354072856073639e-01,9.857862718105639743e+00,3.496275110011621418e-02,2.751519122863137212e-03,1.431081916775159968e+01
2.174399999999999977e+02,-1.184197796636597966e-01,3.028236105546013857e-01,9.756864156250582454e+00,2.758803942125937492e-01,-2.228544676345000086e-01,1.523789211504213092e+01
2.174499999999999886e+02,1.194406323420924010e-01,1.691487729919156913e-01,9.730621384003402596e+00,-1.999629285946266100e-01,3.244104892015972075e-01,1.562299543456036766e+01
2.174600000000000080e+02,-2.130362770851745580e-01,2.623445881665744661e-01,9.809650583711974292e+00,7.259972579550705296e-02,2.584804880615524936e-01,1.435858332761740641e+01
2.174699999999999989e+02,1.784982756680820737e-01,2.210847436914931685e-01,9.673672909243066442e+00,-3.203227498695883080e-01,-1.303141458997298663e-01,1.516757648834075489e+01
2.174799999999999898e+02,9.979443634392971829e-02,1.839434726688737309e-01,9.827356506744674647e+00,-2.759198618523983626e-01,-8.352160607728718877e-02,1.524786786953749562e+01
2.174900000000000091e+02,1.827131547940168133e-02,2.018715607437506221e-01,9.779732529866267399e+00,1.539983677112872762e-01,1.061989392123393605e-01,1.528827345705060914e+01
2.175000000000000000e+02,-4.458793362268278354e-02,3.484037873803819130e-02,9.880253300709062714e+00,-8.864485101240460185e-02,9.630190324381542044e-02,1.533064723102287985e+01
2.175099999999999909e+02,-3.679381269402992594e-02,1.186562392416677242e-01,9.653991349023945290e+00,5.457807090938646827e-02,1.958531631022173425e-01,1.555774546638570399e+01
2.175200000000000102e+02,2.024628184192535374e-02,9.844321249001665441e-02,9.831233391068311178e+00,2.350061349549557588e-01,-1.431706531103908719e-01,1.555249934682380619e+01
2.175300000000000011e+02,1.847735682862560250e-02,1.547232156515079837e-02,9.794268209386739699e+00,1.025713968185731073e-01,8.239410744182122659e-02,1.545178419392425795e+01
2.175399999999999920e+02,-9.591754295933342667e-02,2.243551868154801121e-01,9.851245495967981824e+00,2.279198842308921558e-01,2.198711145282698787e-01,1.523120679610292605e+01
2.175500000000000114e+02,6.778195717152705156e-03,2.369029306871521523e-01,9.730427224775434425e+00,1.510921280032105352e-01,-4.854106313134592260e-02,1.560069133404609865e+01
2.175600000000000023e+02,2.587101605581269836e-02,-8.679264180273857376e-02,9.722913364111709811e+00,2.787851627903487062e-01,2.632060589152753205e-01,1.605881356834712292e+01
2.175699999999999932e+02,-3.006539313237222705e-02,1.651930293677706385e-01,9.665189638488618229e+00,-6.543215209694973333e-02,-1.484621323199070489e-02,1.475368576686208399e+01
2.175800000000000125e+02,2.239185565056696636e-01,1.327620784323426673e-01,9.589327598686478993e+00,2.114154286663851579e-01,2.670209515027559544e-01,1.495802948922055364e+01
2.175900000000000034e+02,-1.339738246512863634e-02,1.042251765514666806e-01,9.955854699953048836e+00,-1.766311643330893133e-01,-3.534385933361006843e-02,1.529530453474697183e+01
