t,ax,ay,az,gx,gy,gz
6.079999999999999716e+01,-1.173245689947668008e-01,3.147866111324522653e-01,9.960695248154603831e+00,1.267063723310216106e-02,-8.892160555003149336e-02,-9.925323994515971027e-01
6.081000000000000227e+01,3.548738029360466034e-02,7.126456972582349836e-02,9.868358988344622773e+00,2.117847318452204530e-01,9.517224235595939108e-02,4.109944378076033633e-01
6.082000000000000028e+01,-8.688460783184304148e-02,-9.510552644897303509e-02,9.805818517545750623e+00,2.401513688214217679e-01,6.864172198821227866e-01,-2.627997439572267724e-01
6.082999999999999829e+01,1.063773983785576693e-01,-1.742047709771354577e-02,9.983988791812398844e+00,1.707437560302992388e-02,-9.844650631984830369e-02,4.236347662513341716e-01
6.084000000000000341e+01,-9.538890884133123527e-02,8.030342636939594159e-02,9.734896282295842695e+00,2.374900776818633999e-02,5.161356882208267133e-02,-8.295120669577409345e-01
6.085000000000000142e+01,4.532545012857709665e-02,1.082852954176829752e-01,9.820651472439557494e+00,2.951115566192576423e-01,1.834316215915590131e-01,-1.375626358710623776e-01
6.085999999999999943e+01,-7.618756289717586172e-02,-1.604412983711113183e-01,9.831253036513656340e+00,-2.978692931571419455e-01,-1.713000166013773917e-01,1.436652967363726344e-02
6.086999999999999744e+01,3.854697750335259188e-02,-1.417111573732745544e-01,9.862141148583170036e+00,-8.537622005526414315e-02,-2.582104042858900106e-02,-9.654504203628478942e-01
6.088000000000000256e+01,-1.534787329095139707e-01,4.699662294236219701e-02,9.763762143877309896e+00,-2.924078557023778724e-01,-2.128260814163344117e-01,3.381976698432907075e-02
6.089000000000000057e+01,-4.531829756295582823e-02,-6.377412466771825716e-02,9.747595039623622171e+00,-1.621719641193901940e-01,2.423327816766700574e-02,-2.352165605839963980e-01
6.089999999999999858e+01,-8.462132852877352063e-02,-7.782094653198977363e-02,9.924566671679633245e+00,2.663466650659053747e-01,1.120212656628619546e-01,7.810407504253763511e-01
6.090999999999999659e+01,8.832325753089800835e-02,1.870790165356641180e-02,9.695283731494132695e+00,1.917711520859413654e-01,-1.664698003784681746e-01,3.238265796776429450e-01
6.092000000000000171e+01,4.622624644542042138e-02,7.907615427170663902e-02,9.932225723935246720e+00,-8.499633080013149766e-02,-8.408932388164910843e-02,9.780002577538203790e-01
6.092999999999999972e+01,-1.232576054615482364e-01,-2.389297812278814992e-02,9.801676660718817047e+00,-1.447398889342212669e-01,3.578215858413760220e-01,-4.673391139775760483e-01
6.093999999999999773e+01,-2.031807366208805005e-02,-1.943053908086677661e-01,9.835127544732070959e+00,3.687671872522447353e-02,-9.823101688583284891e-03,4.846233216686847700e-01
6.095000000000000284e+01,-7.723178427228345744e-02,-5.285736823679213631e-02,9.759845735291206026e+00,1.170133602168838688e-01,-1.482379939036478078e-01,-4.249661306333153352e-03
6.096000000000000085e+01,9.502571938685426545e-02,-1.160405269580228049e-01,9.788798401672231364e+00,-4.059334960824764055e-02,-8.196895312671104161e-02,-1.822550206347003376e-01
6.096999999999999886e+01,1.271524147653938785e-01,5.617248575447243708e-02,9.911030383465250893e+00,1.770342915973942971e-02,3.236969901583015841e-02,1.214611014659532640e-01
6.097999999999999687e+01,-1.441645146510813491e-01,2.050496990626267113e-01,9.764556372481075996e+00,1.168410250474062190e-01,-5.354466666186868951e-02,3.275751478561259034e-01
6.099000000000000199e+01,8.267029743814807707e-02,2.879188508000221636e-02,9.633622765700964763e+00,-2.227890570073959992e-02,1.280444432857492654e-01,1.558887771311660841e-01
6.100000000000000000e+01,-8.232960692577094564e-02,4.410134521999393986e-02,9.814875217476947356e+00,1.296009080383430379e-01,8.912475315771364870e-02,-4.863888320531906118e-02
6.100999999999999801e+01,-2.529167727193191995e-02,8.130008165116549279e-02,9.735738230630166967e+00,1.327237761888646339e-01,-7.884335951286854105e-02,-4.046577894730897795e-01
6.102000000000000313e+01,3.225422906095700131e-03,1.348046243814462475e-01,9.717222149502182660e+00,-2.461567364998498708e-02,2.138131315131915344e-01,3.247070310936157056e-01
6.103000000000000114e+01,1.816606163555472830e-01,-5.818552572257004729e-02,9.743980244624886211e+00,3.313328443345116281e-02,-5.140457019269826372e-02,1.965492712628805760e-01
6.103999999999999915e+01,-1.003849727030885347e-01,-5.293776081864955824e-03,1.002513075135406062e+01,-6.874178786801638484e-03,1.443045756822359527e-01,1.635173534486576361e-02
6.104999999999999716e+01,8.347497226433021889e-02,9.484639371231320948e-02,9.791719882143027576e+00,5.840676486941546314e-02,-3.376064628535516698e-01,-1.010916773007424663e+00
6.106000000000000227e+01,-1.171504408169617845e-01,-9.416976260842778446e-02,9.761595836488021760e+00,-9.607728463068788971e-02,-9.501850368738455621e-03,-3.261821994867007968e-01
6.107000000000000028e+01,-1.240593584840734426e-01,-1.509034244381378675e-01,9.894647521851068106e+00,1.687919449184831500e-01,3.231171078052684498e-02,-3.618709301661540700e-01
6.107999999999999829e+01,2.846344841915499340e-03,-4.650634287134239320e-02,9.864390681562607455e+00,-1.055670783020695169e-01,2.786007646780255809e-01,8.659099774649112735e-01
6.109000000000000341e+01,2.172949098972276529e-03,1.256392409005835931e-01,9.926051095315106210e+00,3.631448107128888714e-02,9.557496392972405662e-04,-3.089666695263960094e-01
6.110000000000000142e+01,-2.832318318469253526e-01,1.405048722952331741e-02,9.955292023220373210e+00,-4.055321569300116558e-01,2.447616344480630368e-01,8.624795787646833967e-01
6.110999999999999943e+01,1.159596289375497691e-01,-4.662550831094100512e-02,1.005568117489514357e+01,3.169971087625078621e-02,1.134161167393390318e-01,6.282618485910212991e-01
6.111999999999999744e+01,-2.139114124430851194e-01,1.015734835025499105e-01,9.736025130891444945e+00,1.535354438136238286e-01,-2.159835308378387497e-01,-3.672498136681329739e-01
6.113000000000000256e+01,-1.459374361133015420e-02,5.534805178662945135e-02,9.907981461789152178e+00,-1.920906811304467499e-01,-3.577543022821896845e-01,-8.763315067570506267e-01
6.114000000000000057e+01,1.327615451605305419e-01,-7.769532350507171725e-02,9.738692217289463215e+00,-3.746174465151987931e-01,3.962725112044672704e-01,-6.937224536458045376e-01
6.114999999999999858e+01,2.209183966688678946e-01,-1.898304788266389279e-02,9.791269668247311486e+00,-1.165582451278305981e-01,3.638611275083326602e-01,4.620501791431702032e-01
6.115999999999999659e+01,-3.630498636885797631e-02,-1.024146924715043094e-01,9.862909416271856244e+00,-3.772144120197353234e-01,1.443929174071720556e-01,-2.859571735984465235e-01
6.117000000000000171e+01,-1.432949083617087727e-01,1.433857340849764399e-02,9.817592872758735822e+00,-1.047581420026547500e-01,-6.128452139297599355e-02,-5.984973081986778576e-01
6.117999999999999972e+01,1.290548225767957913e-01,6.363366263318996630e-02,9.845535160732961089e+00,-2.380226789240279806e-01,-5.468749470458808548e-02,2.322681013155546148e-01
6.118999999999999773e+01,8.651565501202622410e-02,-2.458026386166303201e-01,9.792106180281361816e+00,-5.511837658373783255e-02,2.590085915804675801e-02,-4.600729020433779182e-01
6.120000000000000284e+01,-4.889922895784752643e-02,-1.020174090285392299e-01,9.719939629572371231e+00,-2.802667643163783348e-02,-1.110681578056493812e-01,3.865667244777994394e-01
6.121000000000000085e+01,-6.157374582092063620e-02,1.678595742543286806e-01,9.887568263810903701e+00,1.502488175668338366e-01,-4.039469242442382257e-01,-1.785555401020984534e-01
6.121999999999999886e+01,-7.173921636594314533e-02,-3.355438460132539186e-02,9.692007590008493878e+00,3.502599278348773049e-01,2.690260604807723777e-01,2.331549924253524808e-01
6.122999999999999687e+01,-3.445865357346334507e-02,1.658711626501354619e-01,9.953650668097305143e+00,-5.266753300397203352e-02,2.295694262203196723e-01,-6.009194222390773499e-01
6.124000000000000199e+01,3.160681424016308777e-02,-1.275059634991809465e-01,9.805371170812318127e+00,-4.559926958883217529e-02,-4.129894925704127862e-01,3.553175941605221655e-01
6.125000000000000000e+01,-5.660145827367716459e-02,-5.317938433986712371e-02,9.912017868686806565e+00,-5.624333149808874444e-02,4.449780720366602708e-03,1.546220556150920133e-01
6.125999999999999801e+01,-4.395802755622404967e-02,2.176555618223955865e-02,1.000428669355459022e+01,-1.400693292698877712e-02,3.289075515670070171e-01,-1.729128386682536045e-01
6.127000000000000313e+01,6.412790194105756625e-02,-3.185894270635780678e-02,9.830206614946300547e+00,-2.381682488193427594e-01,1.775893150777164420e-01,-9.163396578703868478e-01
6.128000000000000114e+01,-1.482414141058872870e-01,1.265450907052693141e-01,9.705662551533963622e+00,3.250791053380374662e-01,1.450303529066275521e-01,-4.721363668968984739e-01
6.128999999999999915e+01,-3.759357199135793248e-02,-1.183496995836609035e-02,9.929190306436879609e+00,1.319837324671522538e-01,-3.188634012419212516e-01,6.032410098886846483e-02
6.129999999999999716e+01,-1.675941019099101703e-01,7.120866908232284520e-02,9.785900996096756899e+00,2.304714242732394114e-01,-1.535171287588318056e-01,2.229771525929159226e-01
6.131000000000000227e+01,1.084124733529013250e-02,-1.092019881510079282e-01,9.691962510662403218e+00,1.562216214142988224e-01,1.137130765908853569e-03,-1.598895172930901165e-01
6.132000000000000028e+01,-1.939405408141874620e-01,2.643978357949208768e-02,9.905224332572378998e+00,1.797128725049324249e-01,2.511216002534230607e-01,5.880117032166466418e-01
6.132999999999999829e+01,8.900101268264297427e-02,-3.137840015261561533e-02,9.871669880942633313e+00,8.327854843704668442e-02,8.929630262587902323e-02,6.199170020770218281e-01
6.134000000000000341e+01,-1.314637395792005448e-01,-1.001456998488339523e-01,9.827524138520772112e+00,2.678562119850589895e-01,1.192335377467373947e-01,-3.388064183253404194e-01
6.135000000000000142e+01,-1.772578565361454528e-01,4.665557686385479047e-02,9.728477944777541353e+00,1.703179728830305287e-02,4.997827631598692477e-01,1.403488451706008222e+00
6.135999999999999943e+01,-3.636132959016177141e-02,1.362183987649751016e-01,9.934111202962695231e+00,3.865381905260152628e-02,2.269160137282059120e-01,4.346624587303823256e-02
6.136999999999999744e+01,1.711107291677050335e-01,-5.952589205695472258e-02,9.915289046446511989e+00,-1.216806405680242453e-01,3.353731182674554168e-01,-7.950149758641731346e-01
6.138000000000000256e+01,7.111924534215756377e-02,4.227772587011909694e-02,9.807321409055392181e+00,-1.412039743561106786e-02,1.710553233711013532e-01,-2.566398005912022204e-02
6.139000000000000057e+01,-1.922314105453965805e-01,-2.150956549651970862e-02,9.970875220642021475e+00,1.382352586199449840e-01,2.979470669709447517e-01,-1.538441637764333958e-01
6.139999999999999858e+01,-1.343125267644541265e-01,1.071612475408822637e-02,9.907923615702653564e+00,-6.330023727515400600e-02,1.524867546161237132e-02,2.310182890229638131e-01
6.140999999999999659e+01,-3.956003732457072375e-02,8.398612265792508580e-02,9.741063621968990560e+00,-1.756547507722173163e-01,5.819127757586864402e-02,-4.827747131397610580e-01
6.142000000000000171e+01,2.238353161770861854e-01,1.441784058596068674e-01,9.763109649066892715e+00,2.302714701566435651e-01,-1.136362612534988215e-01,1.335508678091060393e-02
6.142999999999999972e+01,-9.389541479688680303e-02,1.241877315616028155e-01,9.845627208772572914e+00,1.758069013369456535e-02,-2.117663668207450667e-02,-1.662689651123205603e-01
6.143999999999999773e+01,-9.308852437031944760e-02,-7.495776147558637359e-02,9.793687682489643720e+00,1.286862141019639964e-02,-8.749070664217439841e-02,9.351622761443105503e-02
6.145000000000000284e+01,1.527429386880181372e-01,-1.344286487727550106e-01,9.833566325004799324e+00,2.981974081656240116e-01,5.777372330951912466e-02,2.318142816903066006e-01
6.146000000000000085e+01,1.949072052623757739e-02,-2.011398448640007719e-01,9.708822824533323015e+00,-2.875807444452406769e-01,-4.277411924987265662e-02,5.092866885018961787e-01
6.146999999999999886e+01,1.053000027298741231e-01,6.330223964953080040e-02,9.741069956991108114e+00,1.623144912313106425e-01,4.754685337121524087e-03,4.556042650729677512e-01
6.147999999999999687e+01,-7.270995401759647314e-02,-5.262943422794680304e-02,9.817497627647830072e+00,-2.547594860843172548e-01,-1.729155108938778829e-01,-6.575811727968487730e-02
6.149000000000000199e+01,-1.016358477290527085e-02,1.062319585108738584e-01,9.835622979085574258e+00,-3.277190826636061094e-01,1.167218843729477540e-01,-4.142805874691262158e-01
6.150000000000000000e+01,1.315631862188244572e-01,-1.034663670048477785e-01,9.831333372055361508e+00,-3.006110438514332864e-02,2.552071791505674536e-01,-1.856771111536770491e-01
6.150999999999999801e+01,-1.448408767357999005e-02,4.462006992941518202e-02,9.681849591531710431e+00,3.060178991400221427e-01,-1.610944251701544871e-01,-6.573122636947303921e-01
6.152000000000000313e+01,1.123053197526463071e-01,-1.770254010450855731e-01,9.826106974736344313e+00,-8.752766475052835282e-02,-2.657435188203706722e-01,-2.661792443244937467e-01
6.153000000000000114e+01,3.872673004345301984e-02,5.046333884396077274e-02,9.909832070231303192e+00,1.451145827356249696e-01,8.701334115464831598e-02,1.649826623415828752e-01
6.153999999999999915e+01,-1.039629078418918828e-01,3.912995143386824304e-02,9.769468629328951437e+00,-1.100883465322628485e-01,-1.261507067749481903e-01,9.806741133310392655e-01
6.154999999999999716e+01,-1.631721234602282085e-03,-1.099529897263871459e-01,9.740108561682111699e+00,-1.404285567948454216e-01,-3.921081218814816971e-01,1.639322312982214036e-01
6.156000000000000227e+01,9.813839922750333677e-02,1.922418761228700257e-02,9.766246357791757760e+00,-9.880382333120754645e-02,3.244556579790117690e-01,4.828995967370941500e-01
6.157000000000000028e+01,6.694161911868851123e-02,2.069343945354164271e-01,9.777818095420878208e+00,-2.032277137640889075e-01,-2.686371185282458995e-01,-7.837876782882071680e-01
6.157999999999999829e+01,-4.025289842082823213e-03,6.880186079900614537e-02,9.928135436773244393e+00,1.251933544029261991e-01,3.553887075827564246e-01,-1.842899969662037743e-02
6.159000000000000341e+01,-1.891714388971499627e-01,2.955160534015514595e-01,9.683318965383508115e+00,-2.754109165326453779e-01,-3.245688980819926850e-01,-8.815232529939336092e-02
