t,ax,ay,az,gx,gy,gz
2.231999999999999886e+02,4.678511693200154697e-02,2.271594130061554279e-02,9.897777810230524054e+00,2.467429601417967661e-02,2.194168339335524631e-01,-9.444952196782574125e-03
2.232100000000000080e+02,1.474690355829152977e-02,7.014997272672646167e-02,9.771713571003287413e+00,2.942269329758644969e-01,-1.431903373422841463e-01,-2.176623515418568688e-01
2.232199999999999989e+02,1.116141012930935150e-01,8.794516592358314622e-02,9.864433707993647715e+00,-1.349210630779943132e-01,2.503540634458854552e-01,-7.060371085156635917e-01
2.232299999999999898e+02,-3.901074838096812297e-02,-6.170608690341033986e-02,9.776080704388661502e+00,-2.353960389082510041e-01,1.036714939540638869e-01,1.589980038325598866e+00
2.232400000000000091e+02,-1.657722549594481832e-03,-9.048178764165716592e-02,9.774777152375714095e+00,-1.554326015855032606e-01,2.128994618308099052e-01,7.084584855351492294e-01
2.232500000000000000e+02,8.258555796201294541e-02,3.275398718988830477e-02,9.845290909029181137e+00,6.286674381956187663e-01,3.028053853210884716e-01,2.139580564865180279e-02
2.232599999999999909e+02,-7.648697349896997622e-02,9.648503800386754037e-02,9.837842696931916819e+00,-2.099555881554490966e-01,1.417200396304972021e-01,8.858880174204516456e-01
2.232700000000000102e+02,1.424893676638832041e-01,-1.251712454191289403e-01,9.746119791964469314e+00,1.722053076231545576e-01,-2.784621325813100845e-01,7.566590414104484852e-01
2.232800000000000011e+02,2.913444611141560378e-02,6.323305868961019011e-03,9.670098459317683748e+00,1.120507346996547082e-01,-2.320081206061082313e-02,-2.771699099539574607e-01
2.232899999999999920e+02,-1.148893068060189704e-01,-5.187911382892218537e-02,9.757363024997571799e+00,-5.632201356149564575e-02,-2.380019170366446668e-01,6.130313531507845630e-03
2.233000000000000114e+02,-1.935850767035002251e-02,-5.223876556080950251e-02,9.832898606915303930e+00,-1.558711140687104868e-01,1.043155173779477390e-02,-4.687120154068002975e-01
2.233100000000000023e+02,-1.385786656405190720e-01,-3.897483879231876391e-02,9.933684232165223449e+00,2.600430277712146299e-01,-3.871734810123435566e-01,-4.314529911409969998e-01
2.233199999999999932e+02,8.589594564948416916e-03,6.550310951141335991e-02,9.780053079368652647e+00,-1.883526803169278674e-01,-3.233513323018661900e-01,-3.699626556348832862e-01
2.233300000000000125e+02,-3.788044740840525865e-02,5.787669256076986152e-02,9.719363549981910211e+00,-7.685767410601683503e-02,2.212785459139666178e-01,-3.807170681955374114e-01
2.233400000000000034e+02,-8.647049285599683888e-02,-8.880399795439664068e-02,9.681550597393803415e+00,1.071294026557362139e-01,-9.616143953096537023e-02,-7.471437864526753181e-01
2.233499999999999943e+02,-1.780136747895846583e-01,-1.373784202752354744e-01,9.823469403320281401e+00,-3.469050597370409994e-01,-1.524310804928302454e-01,-1.333178376980456541e-02
2.233600000000000136e+02,-7.917777765180061822e-02,1.074447692501251661e-01,9.771485174277231067e+00,6.353474793934385523e-02,7.669525839459051531e-02,1.674442319578430816e-01
2.233700000000000045e+02,-1.805996947611282835e-02,8.024404332196882761e-02,9.746853743262249736e+00,1.975777570631502555e-02,-1.907785996279061369e-01,1.365951859507348043e-01
2.233799999999999955e+02,-3.720009405150993126e-02,1.238597947276769279e-01,9.959146754601659879e+00,-3.097099807278955730e-01,-2.414583187609460890e-01,1.316559215252994242e-01
2.233899999999999864e+02,-1.420153802093573059e-01,5.477939420785522817e-02,9.843503885504540918e+00,1.646388116825703574e-01,3.376792064775745172e-02,1.305844561936633008e+00
2.234000000000000057e+02,2.141406449487903707e-03,1.333039397465459741e-01,9.850122454958983198e+00,-1.027745756020086304e-01,5.386758120454345766e-01,6.181936037291595465e-01
2.234099999999999966e+02,-9.855338415991921064e-02,-2.315979223444452895e-01,9.752214931128994735e+00,2.619023485188615719e-01,-1.230542125706287487e-01,-1.592684512986569309e-02
2.234199999999999875e+02,9.218900548156326591e-02,-1.159984228411264050e-02,9.798422873812002720e+00,5.285423928582642233e-02,-1.614056619309612861e-01,-2.072617909993083596e-01
2.234300000000000068e+02,1.069129436074299361e-01,-6.939668511702941356e-02,9.817622004869290819e+00,-1.877602358785286640e-01,-1.150323048898237444e-01,1.929033482693012780e-01
2.234399999999999977e+02,-2.570784641338214743e-02,1.985254564715439596e-01,9.750616344591481521e+00,-9.361911653036990300e-02,-9.476847282398433159e-02,4.446458449988742179e-01
2.234499999999999886e+02,1.576125957410655365e-01,-1.199249350275803927e-01,9.883805385504977892e+00,8.978922438376680734e-03,1.699317887825119444e-01,-3.239085867305180888e-01
2.234600000000000080e+02,-1.409635353125009150e-02,-1.343275465602462582e-01,9.745888705014904119e+00,-7.334587628487800048e-02,-4.207665806441164280e-01,-2.212275949092235294e-01
2.234699999999999989e+02,-1.300490403900218805e-01,-6.271151258390895988e-02,9.913631322790362077e+00,-6.322425766981104589e-02,-1.892352007786381463e-01,-5.260160480652215087e-01
2.234799999999999898e+02,1.185227694085906613e-01,-5.251545685480037140e-02,9.876135933283057611e+00,1.566260979630329161e-02,-2.260157875491287105e-01,-4.297821804461582351e-01
2.234900000000000091e+02,1.614114516094279361e-01,-3.763788736668474688e-02,9.858728342441448689e+00,-2.079162394884970493e-03,-1.388786132653172245e-01,-2.817640307884923256e-01
2.235000000000000000e+02,9.946224192749955617e-02,9.035708455644585191e-02,9.810825877296970532e+00,-1.604341520313836700e-01,2.643953286012221127e-01,-8.762219374279358597e-01
2.235099999999999909e+02,-7.638486627339589885e-02,1.481933630517260347e-01,9.792395685208150624e+00,2.159350076940324270e-01,1.542379394158546746e-01,6.182996360974292172e-01
2.235200000000000102e+02,-1.235363275373291270e-01,9.700415995548561376e-02,9.905891116491394754e+00,8.806449807486066775e-03,6.194294241322061828e-02,-3.814628323497635393e-02
2.235300000000000011e+02,-3.502961120440015869e-02,2.478292646433577495e-01,9.765920738052361827e+00,1.269875061251083403e-01,-2.715196962645788914e-01,-2.270491928143981153e-01
2.235399999999999920e+02,2.476406231385263890e-01,1.283837978544858927e-01,9.572872617620385327e+00,9.368158462108433504e-02,1.157678983837134440e-01,1.777107151875308155e-01
2.235500000000000114e+02,-1.176881320431555633e-01,-6.328608688409213812e-02,9.775262222599097939e+00,8.823471292889278894e-02,3.213902974704773152e-01,3.794893467504781293e-01
2.235600000000000023e+02,8.207551108636598758e-02,-1.124617887292421112e-02,9.764351970806696812e+00,-5.580579794385596287e-02,1.993234457905784796e-02,1.154380205412381816e-01
2.235699999999999932e+02,-9.253469386186064308e-03,7.908840400101671553e-02,9.735851245980176927e+00,5.947248017695389022e-02,1.321588798899686890e-01,-4.618301809290435433e-01
2.235800000000000125e+02,9.441521914230817381e-02,-1.156468431170668831e-01,9.902635858698454641e+00,-1.898787108384315525e-01,1.660034626820688919e-01,1.217064115832304366e-01
2.235900000000000034e+02,-1.259988284202976372e-01,-3.117247182938675740e-02,9.658122534589482555e+00,2.689648582740709892e-02,1.403583568255815095e-01,-1.614020568934784461e-01
2.235999999999999943e+02,-2.495013998795774304e-02,6.506821191173602081e-02,9.779220484248360989e+00,-1.806071217972811116e-01,-3.816748755132081672e-01,-1.568993325398764793e-01
2.236100000000000136e+02,-8.980496751052541304e-02,1.912081932000263551e-01,9.799207837218958161e+00,-8.436445974860518060e-02,7.927570114577704719e-02,-7.479434274365950319e-01
2.236200000000000045e+02,-8.411508791142853492e-02,3.334254678995877356e-03,9.745552805844166500e+00,7.486791623125221840e-02,-7.698784856492038586e-02,1.479520282941984011e-01
2.236299999999999955e+02,7.366430399659643080e-02,1.929611593852305351e-02,9.899921955747668534e+00,2.259030188896953839e-01,-1.925079342274613192e-01,-2.117765732898196362e-01
2.236399999999999864e+02,-1.119046378248842316e-01,5.163286684674586735e-02,9.969516456495256307e+00,8.055029349585221543e-02,4.210394925009213613e-02,-3.825421686247087449e-01
2.236500000000000057e+02,2.898692935425639661e-02,-1.734113798451886457e-01,9.819647291733447858e+00,-6.856803329348615250e-02,1.727962938035340623e-01,-3.909606885433069556e-01
2.236599999999999966e+02,5.577551511008643423e-03,-3.609382082767930572e-02,9.842072724669748141e+00,-1.275650650187611646e-01,3.899301661285267118e-01,1.194229792832122430e-03
2.236699999999999875e+02,-9.538052465586537021e-02,-8.547747945044147089e-02,9.877688105262107499e+00,4.290934978491477148e-02,8.815249756367987688e-02,-2.503051228507707227e-01
2.236800000000000068e+02,-7.377210576914103313e-02,7.774242813385223716e-02,9.830882550502458628e+00,-1.582451786312379649e-01,-9.305321543054151379e-02,-5.873394257353539150e-01
2.236899999999999977e+02,3.339324870304865439e-02,-4.386120227762685397e-02,9.991256774180930833e+00,-7.894291509702704157e-02,-5.980097558828821880e-01,2.540027015310562519e-01
2.236999999999999886e+02,-2.513644691540653509e-03,1.216137939763585751e-01,9.769409113278120671e+00,5.448167089891681192e-02,-4.617174082988588502e-02,-9.163582465274447975e-01
2.237100000000000080e+02,3.829448725204595647e-03,4.359512637241850369e-02,9.852149018560297122e+00,-1.230049788445872760e-01,-1.207816533065938364e-01,7.705666355404471313e-01
2.237199999999999989e+02,-2.326020317240650934e-02,-1.593312481786489029e-02,9.773658268900526025e+00,-1.708698209507614196e-01,-1.780325044456611272e-01,7.324208194415944284e-01
2.237299999999999898e+02,-2.973232117545814013e-02,-5.622665272586468282e-02,9.938387086154907735e+00,-2.766220690781504010e-01,3.425745755085689570e-01,1.307946002122525042e-01
2.237400000000000091e+02,-2.156211788870043833e-03,-7.136900138933090221e-02,9.722898448214227329e+00,2.548070692410512317e-01,-1.365599842302743505e-02,6.828028480450772097e-02
2.237500000000000000e+02,1.439202264319428826e-01,1.612280690303956598e-01,9.722560123293584766e+00,1.594832731990476482e-01,-3.102824938257360832e-01,-1.241011895143826482e-01
2.237599999999999909e+02,5.290829817297604265e-02,-2.035642650386343400e-01,9.812703236388097494e+00,-1.905046315938572488e-01,-5.110761452645941338e-02,3.049066021195206977e-01
2.237700000000000102e+02,-1.308895063031138839e-02,-8.365787066436491254e-03,9.958171417373893775e+00,-2.900016815468232922e-02,-2.131861649538728809e-01,6.711364980587843920e-01
2.237800000000000011e+02,-1.081841628373453601e-01,8.561642525758065073e-03,9.962854596209474778e+00,2.112612484988698192e-01,-2.603958829511380801e-01,-2.284283383929970601e-01
2.237899999999999920e+02,-4.190302341546919829e-02,-2.259017528070627334e-01,9.640412855100988665e+00,7.795646008135681537e-02,6.976002021230982841e-02,-1.017541702362087852e+00
2.238000000000000114e+02,-9.202440309016282627e-02,1.308939256816508967e-01,9.909230301207303526e+00,1.052126840491662829e-01,-6.305523316749593599e-02,-6.404619101620939725e-01
2.238100000000000023e+02,-7.965862875859200387e-02,2.108170779190510213e-02,9.821622696660194052e+00,1.609404770307824029e-01,1.791979329091666628e-01,-8.245435073362329670e-02
2.238199999999999932e+02,-1.870447572976336736e-01,7.310023890898979804e-02,9.759994783612041758e+00,-1.063131790313293634e-01,-1.363814205521826084e-01,6.831411424951493450e-01
2.238300000000000125e+02,-1.129222276598891616e-03,7.437169291408289584e-02,9.951747023621777544e+00,7.367085907583777182e-02,1.337535657358406016e-01,-5.764859222611781187e-01
2.238400000000000034e+02,2.067727139300996331e-01,9.102642182809021765e-02,9.885499623765630517e+00,4.242847353205927985e-02,1.222169955761341492e-01,1.816625875361180253e-01
2.238499999999999943e+02,1.961689984662135303e-02,8.096677527462084467e-02,9.880501413682527101e+00,-2.032607942812879875e-01,1.796526504598383589e-01,-3.931505639939865127e-01
2.238600000000000136e+02,7.274071349941924058e-02,8.091156846249727974e-02,9.850665057820400250e+00,8.775824344186355930e-02,-1.798074262404321111e-01,1.353270994546158235e-01
2.238700000000000045e+02,9.597984620734154038e-02,3.904647122793297037e-02,9.767927905294124358e+00,-1.018790127305273102e-01,-1.556341779198977364e-02,4.882211515903717158e-01
2.238799999999999955e+02,-2.866984465259786105e-02,9.888677416402248677e-02,9.829505037081570862e+00,-2.484088205969862267e-02,-1.837881511496600728e-01,8.394704784679277720e-01
2.238899999999999864e+02,-2.197516858576138710e-02,2.725676090716994127e-01,9.841992188810220199e+00,4.220636569016006368e-02,-2.206559865578436586e-01,3.258273832273896886e-01
2.239000000000000057e+02,-1.396666735687025762e-01,-8.539915695715161181e-02,9.703599761565079973e+00,2.046521772109733961e-01,6.128961421935364973e-01,2.701442108594962477e-01
2.239099999999999966e+02,1.969148024070444675e-02,6.813617057706224112e-02,9.878175750188534110e+00,4.482874930070441209e-03,2.118153307853352096e-01,1.432843369710722792e+00
2.239199999999999875e+02,5.588927953999875235e-03,1.171966010461839847e-01,9.945523983875125040e+00,7.759422777403295057e-02,1.106751949388233014e-01,3.225870799181171922e+00
2.239300000000000068e+02,-8.561844540449460583e-02,-1.038683570034910075e-01,9.952572916262404590e+00,6.706509143881110580e-02,4.239985577484255835e-02,4.567410057825282088e+00
2.239399999999999977e+02,1.148543015023203301e-01,2.559772600351368776e-01,9.723552320354416523e+00,-2.363013093407663467e-01,5.775530255910747007e-02,5.375240197630505534e+00
2.239499999999999886e+02,-7.766351599419932250e-02,1.483810647775670732e-01,9.782113657049693600e+00,-2.017580715744814734e-01,1.343207522432313950e-01,8.007128862847203266e+00
2.239600000000000080e+02,2.847373852845007103e-01,1.311817325197650597e-01,9.889128891100252616e+00,3.263858194600045143e-02,-2.305993240071201322e-01,9.511327195601905871e+00
2.239699999999999989e+02,4.034462900122984252e-02,8.069338293819980357e-02,9.797578562759396092e+00,3.569258668593880413e-01,8.676430264118688285e-02,1.034295267353212466e+01
2.239799999999999898e+02,-2.187313754468159146e-03,2.178947731428231283e-01,9.747846747695847469e+00,7.700681012580284923e-02,1.447111110262218892e-01,1.240482064631687642e+01
2.239900000000000091e+02,1.938942130635714078e-01,3.831577116578001319e-02,9.929954999055983222e+00,1.167835209430521104e-01,-3.307840146624648758e-01,1.282009634934557951e+01
