t,ax,ay,az,gx,gy,gz
1.600000000000000000e+01,-6.104342546999568485e-03,-1.859698184088145745e-01,9.899613048752920363e+00,9.399026834868366709e-03,1.889883467290287000e-01,-1.531100622606922457e+01
1.601000000000000156e+01,-7.358584493228349788e-02,-6.761501757901607068e-02,9.845448081261258366e+00,1.512139463677552864e-01,-3.663259782110014351e-01,-1.520818368144042054e+01
1.601999999999999957e+01,8.334707099324288604e-03,-1.729283728285151700e-01,1.000782653217400586e+01,-1.178334284027581502e-01,1.244208518916805062e-01,-1.418998812155901668e+01
1.603000000000000114e+01,8.812847814327685880e-02,-2.378856469730525336e-01,9.837186651720303487e+00,-1.816387747719971565e-02,1.525786510134638507e-01,-1.571719011037500735e+01
1.603999999999999915e+01,-9.734467413994762897e-02,-1.293361579249898141e-01,9.852521964245360309e+00,8.868558991456755580e-02,-5.810307955520486317e-02,-1.449808847528374400e+01
1.605000000000000071e+01,-5.397376361534414338e-04,-2.584165909079435552e-01,9.765886455596291427e+00,-1.208053989479900836e-01,2.301157039308163732e-01,-1.554209023190027139e+01
1.605999999999999872e+01,1.038388755734611646e-01,-1.799858495805226055e-01,9.853987914677583504e+00,-2.315831599067116539e-02,-2.166005933495057934e-01,-1.489864022713028824e+01
1.607000000000000028e+01,5.054240932166992328e-02,-2.145370319906442225e-01,9.839121457274348614e+00,9.117814979284813437e-02,4.085109814758300373e-02,-1.454680132378448754e+01
1.607999999999999829e+01,1.309472896350712956e-01,-3.216708370262462147e-01,9.877036705520447768e+00,-1.667924663581436470e-02,-1.316407389473948641e-01,-1.604640996163369238e+01
1.608999999999999986e+01,-5.681423298343345890e-02,-1.337098317676659875e-01,9.847377707068041275e+00,4.485529661995249495e-02,-3.673462927700447446e-03,-1.534366772176965554e+01
1.610000000000000142e+01,-1.830768448394866077e-01,-1.522669768700093407e-01,9.848808704366934563e+00,2.527462961446965209e-02,-4.003639265940057285e-02,-1.532876201609055045e+01
1.610999999999999943e+01,2.006518039556870470e-02,-5.161550961109602487e-02,9.768204794978844419e+00,1.045007663456412050e-01,6.138921578277483498e-02,-1.531061845763085927e+01
1.612000000000000099e+01,3.625708150264851659e-02,-3.535132928344222325e-01,9.877926475406399121e+00,-3.092016362427201792e-01,1.001033603214231543e-01,-1.507376362186888841e+01
1.612999999999999901e+01,1.368421954472675284e-01,-2.379962108212264060e-01,9.828351759356435124e+00,3.398217253289145118e-02,1.305267302909647043e-01,-1.561756133590338891e+01
1.614000000000000057e+01,1.188145734706984036e-01,-5.386676764021655628e-02,9.777510238733819747e+00,9.536544195303524318e-02,-2.492946949821559233e-01,-1.485060393046473592e+01
1.614999999999999858e+01,5.367436230124614932e-02,-1.137096573380169118e-01,9.731646236631462443e+00,6.304762865053901988e-02,-2.246662711374015908e-02,-1.467692104584284074e+01
1.616000000000000014e+01,7.653902141704338469e-02,-9.422941285129819711e-02,9.893714075815699616e+00,2.812012993362357771e-01,-3.876195816389439719e-02,-1.532961691258427095e+01
1.617000000000000171e+01,-1.918214582066392337e-02,-2.149197443483585879e-02,9.893183988978181631e+00,-1.973654221771164730e-01,5.268153675378715178e-02,-1.538065496743926275e+01
1.617999999999999972e+01,-1.219114611319216668e-01,-2.431107407996872249e-01,9.798442773552814344e+00,-4.183002068082133929e-02,-1.075836806959728220e-01,-1.503523219896091234e+01
1.619000000000000128e+01,1.177212173809101536e-02,-2.530869210736120811e-01,9.682238380729851102e+00,3.534440833990692976e-01,-1.218987408358580410e-01,-1.503111975901457775e+01
1.619999999999999929e+01,9.825734636277771994e-02,-8.107217009067599345e-02,9.959303077166261176e+00,1.729607634026337215e-01,-1.625208604811769764e-01,-1.485721434029522570e+01
1.621000000000000085e+01,6.563608698285484933e-02,-1.032903114343545203e-01,9.942476478233967185e+00,-1.612668076461877542e-01,-3.063037142318557060e-01,-1.457563531218664821e+01
1.621999999999999886e+01,8.338073391593647798e-02,-1.791874279686717086e-01,1.004911340133325837e+01,-6.971069068750238018e-02,-1.146595994341645039e-02,-1.542795945645667466e+01
1.623000000000000043e+01,-4.277556870467520006e-02,-1.820367795705155889e-01,9.622356122601420481e+00,-1.467135985083481420e-01,-1.415473449661148464e-01,-1.555110022547513893e+01
1.623999999999999844e+01,-2.655468380184237281e-02,-2.637635187510045665e-01,9.782378863329839191e+00,-2.092836452454601148e-01,2.008052297185769219e-01,-1.438837197713762173e+01
1.625000000000000000e+01,4.834254881146033550e-02,-8.820024958002187221e-03,9.736349514495902469e+00,-2.317088873695730966e-01,-5.655808815478981233e-02,-1.575422740740206784e+01
1.626000000000000156e+01,-5.465073945087545182e-02,3.597894644229088223e-02,9.631443364468225354e+00,-3.430242342148237533e-02,-2.322348671035315837e-01,-1.552067816888426677e+01
1.626999999999999957e+01,-5.157170699330022867e-02,-5.495628751395383038e-02,9.815787689287759576e+00,-1.744946312605311634e-01,-3.994423583525704702e-01,-1.478386189133641437e+01
1.628000000000000114e+01,2.979822363774516439e-02,-1.013754404453450914e-01,9.834946673771099768e+00,2.068839021588901872e-01,2.406217276256020776e-01,-1.562294350681922239e+01
1.628999999999999915e+01,7.609047431569078423e-02,-1.076785633829732275e-01,9.802578895754541222e+00,-9.022072368956397456e-03,1.113370139307526263e-01,-1.480431039955129080e+01
1.630000000000000071e+01,-1.995286733294087886e-02,-1.335658432135707618e-01,9.648198707386358208e+00,-4.160399449307485009e-02,1.210225821818047970e-01,-1.469283045494971240e+01
1.630999999999999872e+01,-1.163189461053638907e-01,-3.429274880985911933e-01,9.871456258434426090e+00,1.068738888357486927e-01,1.625988891924943225e-01,-1.470424338688335197e+01
1.632000000000000028e+01,-7.358039150428299924e-02,-2.142461637305894118e-01,9.691120482930738689e+00,-5.946302000848280311e-03,1.446494335117317898e-01,-1.491682515197825865e+01
1.632999999999999829e+01,2.036720848930982652e-02,-8.468807313452549057e-02,9.914510879277326438e+00,1.120703896397296506e-01,-3.018136021855513315e-03,-1.558196221623702549e+01
1.633999999999999986e+01,1.915209638659648439e-02,-2.513638767202118762e-01,9.909227011614804681e+00,-2.878459744662230715e-02,-2.976395998971409496e-01,-1.567727167153124590e+01
1.635000000000000142e+01,2.412381376553480658e-02,-1.511240034148174372e-01,9.849198066621726255e+00,-1.595752779153178369e-01,-4.108291191931777719e-01,-1.398285049518013423e+01
1.635999999999999943e+01,5.212952905957562999e-02,-5.097107758158425650e-02,9.769299253056217935e+00,-1.653997734924106400e-01,-8.268982706569039109e-02,-1.471372626051218013e+01
1.637000000000000099e+01,5.810558542450014767e-04,-4.936778894385281113e-02,9.824345045924887998e+00,-4.621067458642008074e-01,1.830903249326765181e-01,-1.477193540970031727e+01
1.637999999999999901e+01,2.650560448403119218e-02,-7.294943937791348310e-02,9.748587777952337774e+00,1.022860779131661152e-01,-2.652478993998572121e-01,-1.514710589942968433e+01
1.639000000000000057e+01,-4.502682282886668989e-03,-1.382978290181180459e-01,9.873126029451574581e+00,-3.197456366803979599e-01,-1.017169228110687967e-01,-1.497841862852418160e+01
1.639999999999999858e+01,1.148733482929438915e-01,-8.688801882770447182e-02,9.951278177129379898e+00,-1.233069174158627074e-01,5.119017232181596010e-03,-1.630888849888687986e+01
1.641000000000000014e+01,1.432342031217501699e-01,-1.908062043533317320e-01,9.939780159400122272e+00,8.074955514700096759e-02,-9.371142329826925854e-02,-1.481844109283946231e+01
1.642000000000000171e+01,-1.189011282380034590e-01,3.641808689307385327e-03,9.812706056902410268e+00,-3.115664067651264246e-01,1.427637348371196824e-02,-1.553099576170950691e+01
1.642999999999999972e+01,-2.552519421022533819e-02,-3.257437662304133452e-01,9.951149388979633414e+00,5.528987873375659778e-02,6.715846651417771429e-02,-1.533205877518759230e+01
1.644000000000000128e+01,3.272449154070758079e-03,-1.598722571374141810e-01,9.843837268655059702e+00,-1.644001730823541896e-01,-1.482470554674837349e-01,-1.530291428761554684e+01
1.644999999999999929e+01,-2.669147120143210150e-02,-2.137825016902491215e-01,9.577194974998695542e+00,1.042815212941357733e-01,2.267593055664334223e-01,-1.482775026488792136e+01
1.646000000000000085e+01,1.792922591330873283e-01,-9.842561231049749837e-02,9.940062026278983609e+00,3.646091621462881072e-02,-1.957916171851387804e-02,-1.479497958991251316e+01
1.646999999999999886e+01,2.239552780897346995e-02,-2.006159119885069508e-01,9.828508657282615246e+00,-1.793642810000828924e-01,-4.481793680514403050e-02,-1.462320976702631015e+01
1.648000000000000043e+01,-8.053718270503439081e-02,7.514606552564925823e-02,9.856639973402039345e+00,2.697420993604242034e-01,-1.154364471463670272e-02,-1.437614198271777965e+01
1.648999999999999844e+01,5.964423395606710532e-02,-7.509447225006923854e-02,9.770339658295220886e+00,3.463488362269194210e-01,-3.149011197313297816e-02,-1.399272460869271129e+01
1.650000000000000000e+01,2.709745388461927418e-02,-2.665261445617271852e-01,9.944061541792230230e+00,-1.526074760854684020e-01,1.589466666810329387e-01,-1.554013502202741925e+01
1.651000000000000156e+01,3.041929195534216063e-02,-4.332711978207069992e-01,9.736173730758212130e+00,1.246723627711819951e-02,-3.262093687525639135e-02,-1.506038716504443720e+01
1.651999999999999957e+01,1.807876158799190391e-01,-2.804615651199180437e-01,9.934979572688455107e+00,7.205703205264006594e-02,-2.701238440482774117e-02,-1.569507005162401114e+01
1.653000000000000114e+01,3.507851757548093030e-02,-1.105194431222032009e-01,9.711704111655260263e+00,2.964947335039208043e-01,2.264216945642896217e-01,-1.440604898701359815e+01
1.653999999999999915e+01,-3.036615238739960934e-02,-1.929939611942148303e-01,9.836811649650321954e+00,-3.354520550122134237e-01,6.233837269521285383e-03,-1.505527497186280605e+01
1.655000000000000071e+01,-1.955276426310101068e-01,-2.240385176378568988e-01,9.948145634122857572e+00,1.416074864922956256e-01,1.938849837574530277e-01,-1.429509379378939293e+01
1.655999999999999872e+01,-1.653990181435118986e-02,-2.390055868991129429e-01,9.958640889690324016e+00,-1.604743651945834959e-01,2.794249879222885924e-01,-1.437292649149476276e+01
1.657000000000000028e+01,1.305969917327188812e-01,-8.368403008375713270e-02,9.895527388766483412e+00,-7.657978003182128179e-02,2.480431851653317199e-01,-1.481228879705302859e+01
1.657999999999999829e+01,-9.116911955618714480e-03,-1.997783625371346017e-01,9.921746466622199279e+00,4.148897015054228699e-02,1.868871062615704293e-01,-1.550582098241706852e+01
1.658999999999999986e+01,-2.240049898519503313e-01,-2.101797356698449915e-01,9.902588619577469942e+00,1.139256939186286816e-01,-1.044850606927895803e-01,-1.529844668737323410e+01
1.660000000000000142e+01,-4.983623921924465461e-02,-6.721682652546337455e-02,9.768470398069045046e+00,1.846234060894651474e-01,9.382873891625331808e-02,-1.458041156962946161e+01
1.660999999999999943e+01,9.926885389127922121e-02,-1.046542897074109746e-02,9.861959680680786988e+00,-2.006489707960309732e-01,-3.034108125213760276e-01,-1.482006286689336783e+01
1.662000000000000099e+01,5.458171745620152282e-02,-2.780536788125600456e-01,9.838572503549670500e+00,9.049031335761160977e-02,-6.414688861677124709e-01,-1.424021906800658321e+01
1.662999999999999901e+01,-8.398808965107355806e-02,-4.885255907075251869e-02,9.919460725988056282e+00,1.587830203467782975e-01,1.031721199651313842e-01,-1.518250431552907287e+01
1.664000000000000057e+01,-5.652847763990818258e-02,-1.777140170829761001e-01,9.926194446955337369e+00,-1.816235469351508702e-01,-2.905197339393335021e-01,-1.494750446519003262e+01
1.664999999999999858e+01,-4.107086591024167871e-02,-7.484765546464601516e-02,9.815694865477381015e+00,-1.424577847793894736e-01,-2.286500537140404854e-01,-1.482870676345942407e+01
1.666000000000000014e+01,-6.627137718629301510e-02,-1.011087233815742698e-01,9.800646384519069443e+00,-4.443321143723044653e-02,1.030467387961205850e-01,-1.415326773143725880e+01
1.667000000000000171e+01,-2.029673867739582305e-01,-1.646635869145167685e-01,9.915110278103455244e+00,-1.782276001128852982e-01,-4.104703729663409795e-01,-1.501637590993465032e+01
1.667999999999999972e+01,7.635911006198559114e-02,-1.604307473851585841e-01,9.791854055492910547e+00,-5.553180203110991142e-02,-9.990782753149295148e-02,-1.500387027260900830e+01
1.669000000000000128e+01,1.257059956689093039e-01,-9.983954482618984105e-02,9.924296543942633164e+00,-2.213207401784071746e-03,-1.387507230453624008e-01,-1.567649811608039911e+01
1.669999999999999929e+01,-1.518448943964740283e-01,-2.763153567186151238e-01,9.824349017892522795e+00,7.478102471530910511e-02,9.865981950684343804e-02,-1.413652013409174835e+01
1.671000000000000085e+01,1.243852932586314575e-01,-2.809465809432609706e-01,9.755495173186446323e+00,2.119129529411443724e-01,-5.057519139183015711e-02,-1.459873639418957225e+01
1.671999999999999886e+01,-1.030232013972157828e-02,4.142471977746634004e-02,9.771923339264303010e+00,-1.574496728512402022e-01,7.462041872853236724e-02,-1.523381754398094223e+01
1.673000000000000043e+01,1.225132348167874419e-01,-4.989703551554416916e-02,9.526765562297093481e+00,-7.596037297981655945e-02,2.327395457639069853e-01,-1.541707372022674960e+01
1.673999999999999844e+01,3.795043629044597341e-03,-6.742200166377090853e-02,9.803888084344205112e+00,1.235599802235655131e-01,1.565166581649858613e-01,-1.516992763074632400e+01
1.675000000000000000e+01,1.355445921586299722e-02,-1.822819062693320502e-01,9.873927095862777392e+00,4.404554746137915311e-01,-2.470245886986696116e-01,-1.593604771029588285e+01
1.676000000000000156e+01,3.724346469822128330e-02,-3.305531388508503587e-01,1.006523350625523783e+01,-4.481490648960026642e-03,-1.139272947691965243e-01,-1.369477281476449093e+01
1.676999999999999957e+01,-7.900663251352782468e-02,-2.196885921335345604e-01,9.748289727315135877e+00,7.062676212303756196e-02,2.112773830247365037e-01,-1.559192672485905362e+01
1.678000000000000114e+01,1.194674144328021631e-01,-1.256605489281308607e-01,9.775852473132472298e+00,4.550120297548148479e-02,2.034831476083457658e-01,-1.478847204704742779e+01
1.678999999999999915e+01,-1.121380638074784830e-01,-5.158466192475241741e-02,9.743218266961973129e+00,-4.476729195044125420e-02,-8.022876920255828104e-02,-1.473663819991362978e+01
