t,ax,ay,az,gx,gy,gz
1.072000000000000028e+02,-2.051022488526097476e-01,-2.474234581846754544e-01,9.606263463261710100e+00,-1.485477172002497570e-01,7.039075291917062938e-02,-1.469657754955657225e+01
1.072099999999999937e+02,9.469748008755057844e-02,-2.732789024253127197e-01,9.847341101992279633e+00,-9.904852176242241735e-02,-4.111068864334314898e-02,-1.443347369756284948e+01
1.072199999999999989e+02,-1.183800750541302328e-02,-1.165716419875687804e-01,9.593107038234078843e+00,-3.301061566805701952e-01,-3.094330022107023570e-01,-1.501702871073089085e+01
1.072300000000000040e+02,9.819171632688918072e-02,-2.423446482163383597e-01,9.808502940580334339e+00,-6.463661528185116190e-02,6.734643695486901283e-02,-1.498197973986470899e+01
1.072399999999999949e+02,3.882006135519564666e-02,-1.572799684282366606e-05,9.749887711486959319e+00,-9.708538421732181012e-02,2.205360115232365414e-01,-1.532754874758094488e+01
1.072500000000000000e+02,-1.625596174750697925e-02,-2.359869877623486933e-01,9.638744627105134910e+00,-2.421344487553092617e-01,-2.721574031832841856e-01,-1.485561744632321890e+01
1.072600000000000051e+02,1.975486280501490347e-02,-2.385250609027578794e-01,9.904667246793115609e+00,-1.246482169724745792e-01,-6.193190926792167122e-02,-1.528978549213308291e+01
1.072699999999999960e+02,2.009109373284150013e-02,-2.069504472295320974e-01,9.763438668475931337e+00,-2.278628010526041470e-01,1.601153989308502501e-01,-1.537796009545282772e+01
1.072800000000000011e+02,1.476190099729804417e-01,-1.963902677938981212e-01,9.686602803778720627e+00,-1.559257833418067341e-01,1.627548964086084071e-01,-1.555751268723000358e+01
1.072900000000000063e+02,6.265449277865743627e-03,-2.035297447845428598e-01,9.840734361291451293e+00,-1.332258216639717677e-03,-1.562049286815447302e-01,-1.497174301963580945e+01
1.072999999999999972e+02,2.881655076420865103e-02,-1.929792742165799269e-01,9.913736889420272647e+00,-4.864588770787959399e-02,-2.754429955373504865e-02,-1.539851180625338323e+01
1.073100000000000023e+02,-1.261889782726774711e-01,-2.028970207837794693e-01,9.687419160636094873e+00,2.443763794015142016e-02,4.421496683403610545e-02,-1.484116101718384861e+01
1.073199999999999932e+02,-4.704344829848102622e-03,-3.222476354731317882e-01,9.908758959235681729e+00,-1.327404240287395100e-02,-8.649797456575947230e-02,-1.451794584949091416e+01
1.073299999999999983e+02,1.454310101796490728e-01,-1.162027463939301897e-01,9.652908075641679631e+00,4.537512223048020127e-02,2.443101805710365948e-01,-1.543741159996885237e+01
1.073400000000000034e+02,4.288210060121480649e-02,-2.102403040953283175e-01,9.604950234988102409e+00,-2.130486249777148733e-01,2.548482786040817127e-01,-1.469895839113808655e+01
1.073499999999999943e+02,-1.081012069762560257e-01,-1.819671575042426659e-01,9.776739443928542883e+00,-2.189648735580945749e-01,1.349295022268293676e-01,-1.484911086792781809e+01
1.073599999999999994e+02,-9.738283359082051949e-02,-2.880760213330261221e-01,9.801601541991061595e+00,-1.361874343496505546e-01,-2.581096543398093135e-01,-1.448894082970026354e+01
1.073700000000000045e+02,-7.414954274106673460e-02,-3.191166247853316484e-01,9.912289082032440746e+00,-1.089902303549435819e-01,-3.005281766518441353e-02,-1.488398870582810574e+01
1.073799999999999955e+02,9.996310435934835370e-02,-1.760691520289442702e-01,9.760901700299191575e+00,-2.989436925226145528e-02,2.317587273343269527e-01,-1.507308172536725976e+01
1.073900000000000006e+02,8.765405122923029813e-02,-1.119237280144227964e-02,9.805287362247765870e+00,2.544783329773150915e-01,6.153164247250366044e-03,-1.442336769694792409e+01
1.074000000000000057e+02,-3.454254852840998868e-01,-1.460500192603655933e-02,9.747701976499694609e+00,-7.060782032957808180e-03,-3.429745182288067018e-01,-1.477189478633136055e+01
1.074099999999999966e+02,-8.138569428412104415e-03,-2.575301712327995318e-01,1.002352252698896606e+01,-1.239991169375473379e-01,-5.559310409247475784e-03,-1.462491578250163649e+01
1.074200000000000017e+02,1.476381003869167013e-02,-2.406705551173204116e-01,9.767315813101161481e+00,2.209334545220080492e-01,-8.128197332371976669e-02,-1.482114450434902864e+01
1.074300000000000068e+02,-9.621435288593144231e-02,-1.496482799653880147e-01,9.750882129931172315e+00,6.738766763438909513e-02,-1.717257937628641484e-01,-1.561653285339763997e+01
1.074399999999999977e+02,-3.904749969438900403e-02,-4.332710886864717947e-01,9.779105818673222927e+00,-1.550426341868170743e-01,-7.695898572175215689e-03,-1.584473971666158576e+01
1.074500000000000028e+02,1.330998549129697728e-01,-2.252748777234038213e-01,9.785667675176856761e+00,4.412876741666682534e-01,1.952494469855597936e-01,-1.546853506120747568e+01
1.074599999999999937e+02,4.088432118145036986e-02,-1.444059439459576544e-01,9.612134018434128180e+00,-4.381609201674158127e-02,-6.742824927243203093e-02,-1.527135413994115964e+01
1.074699999999999989e+02,-4.995826403118387715e-02,-1.896502223857916558e-01,9.716708390474869006e+00,3.146583905602671205e-01,-9.678733035511717653e-02,-1.379623746040881827e+01
1.074800000000000040e+02,-1.873083616080402011e-02,-3.565949714581576613e-01,9.679389409570987368e+00,1.281402566395803966e-01,2.103550483359713837e-03,-1.560282091936597304e+01
1.074899999999999949e+02,-2.278731289955630845e-02,-3.495394265613611662e-01,9.736472906319383114e+00,-3.281892668254203782e-01,2.929477818313404661e-02,-1.464682160179632930e+01
1.075000000000000000e+02,2.819551981854992104e-02,-3.097780477395851717e-01,9.972452103815443891e+00,-5.419647171582469003e-01,-5.579056563797457624e-02,-1.559087596246587815e+01
1.075100000000000051e+02,-1.429730656236007647e-01,-1.744139132835914319e-01,9.592681176183903702e+00,5.015720182942928762e-01,-1.489597554712571159e-01,-1.480684746714932842e+01
1.075199999999999960e+02,-6.697552997899471061e-02,-2.502603587368736893e-01,9.677857185058122980e+00,8.269355218600088486e-02,2.110198354768324236e-01,-1.515919230814494867e+01
1.075300000000000011e+02,1.035396449804743269e-01,-1.094972140337363564e-02,9.862589250509799399e+00,-7.380843701211428631e-02,1.150224559316222889e-01,-1.574634131820705996e+01
1.075400000000000063e+02,-7.256648695919042102e-03,-3.003160180710679472e-01,9.725999234203579036e+00,4.846640847132716728e-02,-1.791851176275304491e-01,-1.495829023008209546e+01
1.075499999999999972e+02,-8.499082527601255210e-02,-4.386957236113016301e-02,9.906931017953096941e+00,6.387691229374274637e-02,-2.132838643202536189e-01,-1.480617112951478198e+01
1.075600000000000023e+02,-8.086600416577134631e-02,-2.869671861526383316e-01,9.924792343711757781e+00,-1.980041781191798078e-01,-6.789727866389989874e-02,-1.419802177831547674e+01
1.075699999999999932e+02,7.208436021306856289e-02,8.492616229477520373e-02,9.625107672750512933e+00,-1.818464556539494403e-01,-8.030936039399637350e-02,-1.465335788728069666e+01
1.075799999999999983e+02,-5.178052653301162128e-02,-1.004463921262573056e-01,9.677301611781873092e+00,1.126742265057529280e-01,-1.312179037703214146e-01,-1.491032662303861933e+01
1.075900000000000034e+02,5.109033790865827318e-02,-3.883757046729395812e-01,9.995892044494279816e+00,-4.999880705567003591e-01,1.276930468459958889e-01,-1.604535808723836965e+01
1.075999999999999943e+02,-6.268343208914771425e-02,-4.497330280658413948e-02,9.855561809476332868e+00,1.325566543086352245e-01,-1.167903398010935456e-01,-1.471995472019907680e+01
1.076099999999999994e+02,-1.129964892666654591e-01,-2.128760201495670523e-01,9.669095663137438734e+00,-5.531552127009761732e-02,-1.083221886178178939e-01,-1.562196946353479987e+01
1.076200000000000045e+02,2.444479584974529329e-02,-7.387529403457712696e-02,9.719302409408859589e+00,1.276780616027528292e-01,6.434456663140290800e-02,-1.521447179876868994e+01
1.076299999999999955e+02,-9.738100591346759288e-03,-1.677628703876622163e-01,9.880808526101983347e+00,1.992542050937035070e-02,-9.990668309157930971e-02,-1.544986724650783927e+01
1.076400000000000006e+02,6.851243384153059279e-02,-2.021778490464530842e-01,9.800906983423738339e+00,-1.651428690973182623e-01,1.694887694118034360e-01,-1.501644786327738679e+01
1.076500000000000057e+02,8.841243210313999568e-02,-1.920447413910519319e-01,9.833199088171767244e+00,9.276710140806170013e-02,1.087469507197658114e-01,-1.515156213529406592e+01
1.076599999999999966e+02,-3.579668887533978688e-02,-2.838013523508422509e-01,9.749390477138939914e+00,2.117921929597736674e-01,1.448856872897016090e-01,-1.507045838005463345e+01
1.076700000000000017e+02,3.489338273511140287e-02,-2.107421285053642790e-01,9.764218881724502808e+00,-1.009261061024915717e-05,4.091065505513168943e-01,-1.486864048502300761e+01
1.076800000000000068e+02,-3.888097854593733360e-02,-2.958951926509211239e-01,9.919061722575161610e+00,-3.180552626906517633e-01,-1.846897554130097485e-02,-1.474528937096907377e+01
1.076899999999999977e+02,6.336469640713880691e-02,-2.138728865169384208e-01,9.889949485903583692e+00,-1.236274822367699200e-01,1.106504543610217217e-01,-1.474908348459912055e+01
1.077000000000000028e+02,2.334154611073083196e-02,-1.471603767190869938e-01,9.659674540308479607e+00,3.947581298285378348e-02,-1.649549629917980154e-01,-1.486017074855055675e+01
1.077099999999999937e+02,-6.238365173627744009e-02,-6.089266147868596657e-02,9.763475905115637232e+00,1.327072700559250584e-01,1.259953512042200907e-01,-1.518039601622144019e+01
1.077199999999999989e+02,-7.075778910185138992e-02,-1.801146453331775588e-02,9.900756457702430069e+00,-1.469873842238173522e-01,1.311550694520290383e-01,-1.522881388408065462e+01
1.077300000000000040e+02,2.686679251038352062e-02,-1.679121033703050714e-01,9.525535932465041711e+00,1.257122961433300434e-01,1.792095163696305338e-01,-1.473898210446594703e+01
1.077399999999999949e+02,1.162191052652582768e-01,-2.792585741948580003e-01,9.588502319190704171e+00,3.856372668422856087e-01,3.218457760643845394e-02,-1.507278410236627408e+01
1.077500000000000000e+02,9.012962112060259046e-02,-1.718371830262361843e-01,9.979758518792149147e+00,-1.989091323384462595e-01,-1.270429953427665119e-02,-1.486877202135151599e+01
1.077600000000000051e+02,-9.430094039799051531e-02,-1.828487239750997972e-01,9.809129169232150502e+00,1.669661189237085508e-01,5.839177841862311369e-02,-1.441558373120559722e+01
1.077699999999999960e+02,-8.378432960225562498e-02,-3.489452195570502679e-02,9.794687101699702581e+00,2.510421422161275840e-01,7.822691772043054159e-02,-1.557258863712483787e+01
1.077800000000000011e+02,-6.904777115664217924e-02,-7.912249993834294393e-02,9.883563300248058070e+00,1.659137681598176206e-01,5.802833279497677799e-01,-1.504936985849842657e+01
1.077900000000000063e+02,-5.965629295846528596e-02,-1.434020309892581890e-01,9.611365150493124787e+00,3.004402380623187874e-01,5.568596795461109444e-02,-1.480882676230149819e+01
1.077999999999999972e+02,-1.816660103519104619e-01,-1.459627259772725005e-02,9.827563037743331620e+00,4.107889303826191274e-02,7.081770954823654596e-02,-1.518529209088745979e+01
1.078100000000000023e+02,7.900432041297202057e-02,-2.172840424699700179e-01,9.912843955523351624e+00,-2.741961101159676728e-01,2.155699300878615166e-01,-1.479930425076570266e+01
1.078199999999999932e+02,-4.558827353720192044e-02,-1.039787366932777707e-01,9.767220867260698824e+00,-6.915166943646643138e-02,-4.124186792507377186e-01,-1.478469338911917141e+01
1.078299999999999983e+02,4.620742558975168141e-02,-2.171553728429613805e-01,9.973355635004827136e+00,-3.061408530697032893e-01,1.257964323658877608e-02,-1.588336792199058145e+01
1.078400000000000034e+02,-3.157580082170946545e-02,-2.138211759959890435e-01,9.984907169188401710e+00,-3.778229874379713388e-02,-5.931424121863091564e-02,-1.501204701734487301e+01
1.078499999999999943e+02,-2.296590031445052121e-03,-3.734834068761809789e-01,9.944218823758548709e+00,-1.332050889372356217e-01,5.960368635611107326e-04,-1.439365251274103841e+01
1.078599999999999994e+02,-6.851858784105074873e-02,-1.565766554410776557e-01,9.844946800174398049e+00,2.475874692514831998e-01,7.072882545999087389e-02,-1.484839106729393343e+01
1.078700000000000045e+02,-2.825775329823935512e-03,-1.537499833765522128e-01,9.798920731710882848e+00,-6.386077629392870880e-02,1.691954341143400986e-01,-1.451262198633210865e+01
1.078799999999999955e+02,-8.712458118145105512e-02,-1.803661660624764906e-01,9.762959169976230811e+00,3.323449962070684077e-02,-3.242199640562209301e-02,-1.489560396431159539e+01
1.078900000000000006e+02,-2.083955277123762488e-03,-1.212604355217722640e-01,9.803197612850487630e+00,2.423906637550143628e-01,3.582595455193263723e-01,-1.564336457945852032e+01
1.079000000000000057e+02,1.457223075065956219e-01,-6.671322130153309327e-02,9.911452798345736781e+00,-3.431856764172333540e-01,2.151960903580220352e-01,-1.470903428068291419e+01
1.079099999999999966e+02,5.206047181610040653e-02,-1.517571679609183433e-01,9.677075917734971000e+00,3.619078359483054452e-01,9.318611457211596139e-04,-1.327217609859757808e+01
1.079200000000000017e+02,2.910519010263631912e-02,-7.298920534242546443e-02,9.831597076376000999e+00,-6.016428293711601795e-04,-2.971040782507416433e-01,-1.218436840318541492e+01
1.079300000000000068e+02,-1.319740818033994234e-01,-7.930228560963056839e-02,9.886952876521457156e+00,-5.863047221972995937e-02,1.640378153943530815e-02,-1.047268400614796668e+01
1.079399999999999977e+02,5.672564020580000976e-02,7.637909497333839060e-03,9.726795128108783217e+00,-1.094331426176668592e-01,-1.757760187861743401e-02,-9.421969543062253649e+00
1.079500000000000028e+02,6.644533843597537348e-02,-3.001852720801086172e-02,9.804396275263007610e+00,-9.776915885620678093e-02,-5.775268644953968078e-02,-7.740881280195286429e+00
1.079599999999999937e+02,2.682657095322018084e-02,1.155889366204527618e-01,9.892871366416512657e+00,2.747568384685547538e-01,-1.836627157378392106e-01,-6.324624342335491534e+00
1.079699999999999989e+02,2.142824917381311312e-02,-2.350405006507935712e-02,9.862858436408947327e+00,-4.211823396657390917e-02,1.307311575094924905e-01,-4.573216798575598929e+00
1.079800000000000040e+02,-1.401811936108573846e-02,-1.270660961061676475e-01,9.761219005094959655e+00,-1.784040030294808607e-02,-3.294048771795998753e-01,-2.611707995906708657e+00
1.079899999999999949e+02,6.494025158224628336e-02,1.095126998647579647e-01,9.716338493724309799e+00,-1.037913596064342914e-01,3.352857910461178315e-01,-1.395796919022930682e+00
