t,ax,ay,az,gx,gy,gz
1.192000000000000028e+02,7.000726963262404734e-02,2.284519864212389978e-02,9.962218409335994451e+00,-2.326197100166384757e-01,1.753811679676295712e-02,3.884280004534907960e-01
1.192099999999999937e+02,1.278410895261887781e-01,-9.973363402740582917e-02,9.759841360068522320e+00,2.949727385416917036e-02,-9.313876226729211893e-02,-3.631769137712648754e-01
1.192199999999999989e+02,4.977301095589919955e-02,-1.478897041504818322e-01,9.644977631523550698e+00,4.126077275593557914e-02,-3.973319762287010337e-01,4.183078879009917150e-01
1.192300000000000040e+02,-5.293455236693311167e-02,7.267062769741962358e-02,9.846438193253723270e+00,-2.420843820608419295e-01,-1.096716303837659834e-01,9.401991964519028633e-01
1.192399999999999949e+02,1.386276082080822869e-01,-1.308679111504556791e-01,9.911886994128845885e+00,1.068614377409917715e-01,-2.513199313538804214e-01,-2.848023769424169044e-02
1.192500000000000000e+02,1.162975826236039983e-01,3.653030747501570530e-02,9.817626691034233133e+00,-9.618360309517526296e-02,-3.215149358290800979e-02,-8.420967214773468212e-01
1.192600000000000051e+02,2.690175277715409902e-02,1.007770763671187036e-01,9.934757505703293745e+00,-2.307692065870483311e-01,1.137810218061883066e-01,-2.422901940791863384e-02
1.192699999999999960e+02,1.210777746823494677e-01,-1.030707844888841401e-01,9.982909419046418265e+00,4.986747540712613974e-02,1.336939762523301489e-01,-4.226727680487638722e-02
1.192800000000000011e+02,2.184810310984807991e-01,-6.563312775701407586e-02,9.843229580480020502e+00,3.898733287690954539e-03,1.119412106476384700e-01,-3.867538438140488144e-01
1.192900000000000063e+02,-5.435839400937330507e-02,-1.535723801717439434e-02,1.001235135875175963e+01,9.389711157191425739e-02,2.416579814823582861e-01,6.989867725893753048e-02
1.192999999999999972e+02,-8.996776822830035436e-02,-8.871004876602117672e-02,9.599274747327967816e+00,-1.582346836732561046e-01,-4.640715221915011485e-02,6.813694457405501392e-01
1.193100000000000023e+02,-5.726891904279649698e-02,-9.029912313516942624e-02,9.722380458272947834e+00,-1.474381471343843009e-01,1.411196159603559652e-01,5.684068101007631046e-01
1.193199999999999932e+02,-1.349650029965843434e-01,-5.332512123192861830e-02,9.910268925163235210e+00,3.472988478552176822e-02,3.325664237810439516e-01,-4.886801608807795350e-01
1.193299999999999983e+02,5.912147846166918713e-02,-7.708506395143073509e-02,9.882756230062106795e+00,-2.114242997016747005e-01,3.598025079413613714e-02,-1.471505407195889958e-01
1.193400000000000034e+02,-1.609903201343687307e-01,4.862796851965831002e-02,9.755069815896925789e+00,2.477744225513604237e-01,-4.460318137447982778e-01,-4.520876330135516902e-02
1.193499999999999943e+02,1.265014234071697441e-01,7.824116668154154283e-03,9.800758780887115051e+00,3.703803150594411342e-01,-2.282819424942597597e-01,-1.150734813293635139e-01
1.193599999999999994e+02,-6.721816361734880840e-02,-1.446615412966886227e-01,1.003943662617903598e+01,-4.681768780956927500e-01,8.819456416995100079e-02,1.618257437126184306e-01
1.193700000000000045e+02,1.358707798844158710e-01,1.728114031664568506e-01,9.944449772570266077e+00,1.922454664178467887e-01,-4.350536509767657378e-01,1.259630372906499929e+00
1.193799999999999955e+02,-2.557038298320448155e-01,-2.983986433824423190e-02,9.587864512881671075e+00,-2.089224508277478243e-01,1.094124146358733118e-01,-8.325388241045715843e-01
1.193900000000000006e+02,-3.851876277038306789e-02,-6.922019146108545143e-03,9.776694499237709834e+00,1.123610044947495057e-01,-9.729142629301887335e-02,1.026312741306050214e+00
1.194000000000000057e+02,-1.293010415756253584e-01,-5.233539249165968660e-02,9.805408086921223898e+00,-8.913487570652671443e-02,2.637261293946304708e-01,-1.987437191502600675e-01
1.194099999999999966e+02,1.353354922588202724e-01,-1.103161896417812447e-03,9.906278287533995197e+00,1.073135461786418887e-01,-3.252141754453664046e-01,-2.210574772435409951e-01
1.194200000000000017e+02,1.679024798503828408e-01,-9.065638607594067588e-02,9.864106086527758777e+00,-7.470382808242918837e-02,4.612059263330093445e-02,1.539729031696203398e-01
1.194300000000000068e+02,-2.344078897349376744e-01,-1.353493568150050397e-01,9.927448035338546362e+00,-1.068088507147142881e-02,-2.272313563365884748e-01,3.085362753007359071e-01
1.194399999999999977e+02,8.658615583337871124e-02,-3.322387485622096959e-02,9.846519701280463721e+00,-3.641686449408566562e-01,-1.923852755685317995e-01,-2.036006438311432631e-01
1.194500000000000028e+02,1.068687353658906991e-01,1.434458423509093195e-01,9.837757893551545507e+00,5.218775791939123110e-01,-2.117022632177496255e-01,8.800177167006691947e-01
1.194599999999999937e+02,3.256845252108264699e-02,5.631512653093417170e-02,9.877153577386753369e+00,-2.427819315759933427e-01,-1.097493028681110760e-01,1.206483934452658446e-01
1.194699999999999989e+02,5.881633094120219951e-02,1.218236929556738013e-01,9.757560130018074318e+00,-7.494907337300264760e-02,1.526846649667840117e-01,-3.729566490302803627e-01
1.194800000000000040e+02,5.160550147755645078e-02,-5.750878953456056708e-02,9.857005393398230453e+00,1.952421218660710389e-01,2.942489889017959603e-01,2.341237822617079634e-01
1.194899999999999949e+02,8.695084820001196257e-02,-8.164883082485423216e-02,9.980174001732370570e+00,4.188249993263959969e-01,8.155094439665983019e-02,7.596553660680679387e-01
1.195000000000000000e+02,-1.092467040476339940e-01,-5.151933144619770533e-02,9.620635398864511245e+00,3.472904291495698681e-01,6.582312962127366551e-02,4.742202295861333745e-03
1.195100000000000051e+02,1.200494344440016792e-01,5.137546616955689788e-02,9.855150559289862500e+00,-4.212378013134214227e-01,1.956556521224468020e-02,3.393667143818812071e-01
1.195199999999999960e+02,2.093463358954291212e-02,1.020179995335063761e-01,9.586273211908540759e+00,1.834967418079377632e-01,-3.783957404598886631e-02,4.552047685643161867e-01
1.195300000000000011e+02,1.493338397698011459e-02,-2.764676500071439752e-02,9.888609991097139229e+00,7.655571837428687409e-02,-3.887225312255200571e-02,-6.611205088006935626e-02
1.195400000000000063e+02,5.666249492410705552e-02,-1.404486967812381137e-01,9.829798905891445671e+00,1.462419629066797622e-01,2.677033447831613788e-01,-5.995984989209950100e-02
1.195499999999999972e+02,-1.270768788829540474e-01,9.741193762048105942e-02,9.903791048352244886e+00,-1.461175243880052099e-01,1.430306086718623540e-02,-1.195907426863386663e-01
1.195600000000000023e+02,-1.553442184749406485e-01,1.109876351933414829e-01,9.731712359768486920e+00,1.161470308356735148e-01,-3.350273123934358749e-02,5.280591634111620608e-02
1.195699999999999932e+02,-1.210321623028761534e-02,5.114039108715826010e-02,9.765758314836093135e+00,1.499436335758574657e-01,2.274500790457930632e-01,2.347168555448447824e-01
1.195799999999999983e+02,1.543538931380798451e-01,1.428773164151843911e-01,9.916384726701490848e+00,6.205955973854853508e-02,2.870371269447382842e-02,-7.150666381013152419e-03
1.195900000000000034e+02,-1.185382628700485663e-01,-1.915884455093315453e-01,9.935288851800683219e+00,2.525635323156539269e-01,-4.785121594623339414e-01,6.212956780447967953e-01
1.195999999999999943e+02,1.751544406664739401e-02,-9.234410916129469349e-02,9.706644875400971983e+00,-8.333607669427403608e-02,9.822430255732000903e-02,1.914291491283194035e-01
1.196099999999999994e+02,-7.166839079360776132e-02,2.066421820784387214e-03,9.767184671671589768e+00,1.276939625309330972e-01,-6.103697384814716492e-03,-6.140300170949172798e-03
1.196200000000000045e+02,-8.509784292529538885e-02,-1.057721815894410167e-01,9.711143617302342435e+00,-9.943991856580583488e-02,1.735107261183627125e-02,-1.208436198199558248e-01
1.196299999999999955e+02,5.007483659768419137e-02,9.173936617671699101e-02,9.903075837564282224e+00,6.259841227489180981e-02,2.811248193481629687e-01,-6.228964122906396339e-01
1.196400000000000006e+02,7.593754993894520633e-02,-1.176130063115247010e-01,9.852142691077157011e+00,-1.002440507404569053e-01,1.595718561457527829e-01,4.218728309469821913e-01
1.196500000000000057e+02,-7.875514689632215348e-02,1.344567184572063034e-01,9.877436355322075201e+00,3.308841462694327856e-02,-1.948354372941199231e-01,-1.988629660831111867e-01
1.196599999999999966e+02,1.387250255966782919e-01,-8.489621870395251679e-02,9.815468681647891103e+00,2.079672105948740524e-01,1.293504413926558905e-01,-1.409394693951665500e-01
1.196700000000000017e+02,4.225036264925375457e-02,1.399768038671891646e-01,9.596016447040319974e+00,2.617345306795591797e-02,3.595027253551705826e-01,-3.415849358342222808e-01
1.196800000000000068e+02,-2.416779645132707127e-02,-8.242523887865133014e-02,9.736169220271964519e+00,-2.354316050102336355e-01,4.864487805870875703e-01,-7.946172693092240502e-02
1.196899999999999977e+02,3.475180359052686824e-02,-2.362634916715719013e-01,9.793181385267917705e+00,-9.110630366482885822e-02,-2.981429436513217124e-01,-9.056169750905154192e-01
1.197000000000000028e+02,2.036347514656217106e-01,1.411736261534705418e-02,9.684873827451358608e+00,1.781875213491082854e-01,-1.911268101627660587e-01,1.179200636308519630e-02
1.197099999999999937e+02,7.535307511006826553e-02,6.810839271838436959e-02,9.598431659700757734e+00,9.201772360317225785e-02,-1.837317908931037358e-01,8.234119635207812760e-01
1.197199999999999989e+02,-6.986969352588083548e-02,-1.037852685614206738e-01,9.909957671542391822e+00,1.285135889577690427e-01,4.155953879223379110e-01,-5.938657169020590265e-01
1.197300000000000040e+02,-1.870749527702200840e-03,1.585073793409720044e-01,9.729763767126060614e+00,-3.492436023533657119e-01,1.777949537768329646e-01,4.003528301541520174e-01
1.197399999999999949e+02,1.312688711715056904e-02,1.368595388452512329e-01,9.864748163342335729e+00,-2.201254528317397041e-01,-5.252187663079234403e-02,4.423387498091904679e-01
1.197500000000000000e+02,6.653567876449542617e-02,-1.767579356686622971e-02,9.949262720336117027e+00,3.210825217502100148e-01,-7.946329877728648683e-03,-1.001679014912437049e+00
1.197600000000000051e+02,2.395477208692314841e-02,3.184713112595381757e-02,9.756766901439219097e+00,3.129153101197314490e-01,-5.382429256590496452e-02,2.405433316047629055e-01
1.197699999999999960e+02,1.895323908952170344e-01,1.556383441418147853e-03,9.804591714808688963e+00,1.187352718723278661e-01,-1.445647936943503520e-01,2.711596190894338121e-01
1.197800000000000011e+02,-2.266864287011696386e-02,6.556527467898758121e-02,9.878466560141847097e+00,2.153310995096326119e-01,-9.910668409051864858e-02,-4.078709099340545041e-01
1.197900000000000063e+02,-1.729905697426792899e-01,8.513220780419217260e-02,9.780673634689128093e+00,-3.547240297831730782e-01,1.416466547663561559e-01,-6.518183598500819631e-01
1.197999999999999972e+02,2.145285694972513812e-02,-1.656478806853979302e-01,9.830328809234815779e+00,1.048591924021543553e-01,-9.069453762298716748e-02,6.240753077619671033e-03
1.198100000000000023e+02,-4.411251991961075841e-02,1.676964277704365569e-01,9.892611699530940328e+00,-4.568047889229153724e-01,1.081247537706867407e-01,7.254711045606705433e-01
1.198199999999999932e+02,-1.504030990148844671e-01,1.187093255437758066e-01,9.633874220753677164e+00,2.566152330004751181e-01,1.078388353065252298e-01,7.809453011376075171e-01
1.198299999999999983e+02,-7.035239816671137736e-02,-1.046130540037822770e-01,9.986772457991786922e+00,1.947652656771267921e-01,-2.003090917065157850e-01,5.473048054757581049e-01
1.198400000000000034e+02,-3.583879681773203402e-02,1.452092821900681230e-01,9.849123487593265835e+00,-1.825091283664618536e-01,-1.873093924881901462e-01,9.829208408458220969e-01
1.198499999999999943e+02,1.139804216250485669e-01,1.910952100958760169e-01,9.838153050692488577e+00,-4.582570067158098226e-02,1.815536707621070653e-02,-5.014217134867815506e-02
1.198599999999999994e+02,-1.483248317897874757e-01,-1.714915278392148412e-01,9.829527756977476827e+00,1.991403511121024872e-01,2.252179594902324958e-02,-6.123552424477128608e-02
1.198700000000000045e+02,3.497852675752837620e-02,6.873530489709070435e-02,9.985698906496979887e+00,-9.327649229886425530e-02,-2.113929967097533946e-01,6.199904945263648992e-01
1.198799999999999955e+02,2.220480621521189468e-01,9.188953151470748149e-02,9.685728981673287663e+00,-2.523393542908261011e-01,3.339984897375145034e-01,-1.085537274456598977e+00
1.198900000000000006e+02,-1.748616356766815455e-02,3.648972420671308531e-02,9.869680735671899185e+00,4.330935265647347099e-01,5.825923210053041146e-02,-4.014118521566550912e-02
1.199000000000000057e+02,-2.042404896651718246e-02,1.170355941264978467e-01,9.940110164101563228e+00,2.019129710700375002e-01,-1.212416934633436805e-01,-8.570708378889142498e-01
1.199099999999999966e+02,7.197765194776986619e-02,3.283434988446638780e-03,9.937146071868852459e+00,1.081573510374114894e-01,-3.182014222733952624e-01,-1.270959353486681431e+00
1.199200000000000017e+02,5.221815959136071744e-02,1.613876538845685632e-02,9.901281757852231635e+00,7.093139013646627966e-02,2.760422867140647774e-01,-2.280699596774322657e+00
1.199300000000000068e+02,1.417562223904020313e-01,-2.400097972495059129e-01,9.773779350875727800e+00,1.220975319743479448e-01,1.302845876095510003e-01,-4.803095424555350768e+00
1.199399999999999977e+02,-1.671111278986770962e-02,-1.323482158168270972e-01,9.881063641880231785e+00,-2.368110629939765288e-02,3.214575825817631710e-02,-5.905532495611973687e+00
1.199500000000000028e+02,7.021929116496299084e-02,4.320447173525525375e-02,9.901360347442823340e+00,-3.512353570649259099e-02,1.894740611602101776e-01,-8.371470750943007744e+00
1.199599999999999937e+02,7.181007888740206790e-02,-1.696105598582764717e-01,9.835636359286599628e+00,1.526793462836355947e-02,2.053887423017120711e-02,-8.927139777754716121e+00
1.199699999999999989e+02,-3.355558931513027282e-02,-1.223195110347007480e-01,9.755492713056829857e+00,1.957691844751164867e-01,-2.565099952643384862e-01,-1.022921271071164639e+01
1.199800000000000040e+02,-1.139801899820287734e-02,-2.462570996274234814e-01,9.804176914538670573e+00,-2.318918583790006982e-02,-1.638745113434715295e-01,-1.225961940169757902e+01
1.199899999999999949e+02,-1.119917145977023009e-03,-2.164076714517700339e-01,9.813274658768825986e+00,6.713143456014590560e-02,-5.207727984481633765e-01,-1.305317648303931932e+01
