t,ax,ay,az,gx,gy,gz
7.440000000000000568e+01,-8.211597081953364574e-02,4.960204244129642892e-02,9.632771028822334713e+00,1.560540604473237558e-01,-1.136188728030645551e-01,1.515485778821244622e+01
7.440999999999999659e+01,5.375171269731426199e-02,2.165348625578707442e-01,9.851974170189151891e+00,-2.739807792157045729e-01,-2.820998940875087402e-01,1.493304719313638707e+01
7.442000000000000171e+01,-2.520491246348559658e-02,2.054571848827446146e-01,9.859612916465438914e+00,-3.620561779536183300e-01,1.494416628727520124e-01,1.402466465864132061e+01
7.443000000000000682e+01,-3.797942420919558915e-02,2.381299420695494051e-01,9.862488284301234032e+00,4.001465305188698363e-01,3.044039591822689239e-01,1.537546098364452618e+01
7.443999999999999773e+01,-4.665549688269199358e-02,6.233100349294620757e-02,9.889578277913914306e+00,-2.067936120245923437e-01,-8.724689633795466512e-03,1.511100686148363792e+01
7.445000000000000284e+01,-2.325631677841348000e-01,8.398655664815342370e-02,9.633815815810681471e+00,1.625822393705342594e-01,1.202131500580791608e-02,1.475216545778388522e+01
7.445999999999999375e+01,-9.668815259640181625e-02,2.489907717251199082e-01,9.684198476266580258e+00,-1.847802370838086405e-01,-1.327771526839569560e-01,1.558992423746502531e+01
7.446999999999999886e+01,1.181563136882091414e-01,2.562713848961053476e-01,9.677694621985908796e+00,1.179434978629302910e-01,-2.977028213224358795e-03,1.545863554335187651e+01
7.448000000000000398e+01,-5.393981015339728569e-02,1.257558741607169017e-01,9.769810904431457388e+00,-2.029040725747041363e-01,1.726332701569220293e-02,1.473158495000808443e+01
7.448999999999999488e+01,-1.900489706017740310e-01,7.140534537805456883e-02,9.722010345170744472e+00,-2.769088326893594503e-03,7.744703054080072369e-02,1.517083603045345086e+01
7.450000000000000000e+01,-1.007994238868490655e-01,9.651634974993590632e-02,9.844099586890207476e+00,2.651512340059149486e-01,6.797842799481144949e-02,1.568838055125675268e+01
7.451000000000000512e+01,3.598539647549959392e-02,7.011762331337798027e-02,9.807918127080711201e+00,1.420221241794001645e-02,-6.144109335005112915e-02,1.515290432343885563e+01
7.451999999999999602e+01,3.400346092057379699e-02,2.464589065473586915e-01,9.853730507982561448e+00,-4.104235519399792587e-01,-1.863591940826597737e-01,1.449064763184040494e+01
7.453000000000000114e+01,-2.942806125613497970e-02,2.379567214260492336e-01,9.860444723528354771e+00,-3.889559529802726068e-02,-2.851567559729612511e-01,1.447521163285709100e+01
7.454000000000000625e+01,-6.892040470850335776e-02,1.747971526616685090e-01,9.609421794030723163e+00,-7.295452877414632109e-02,1.103961109221810039e-01,1.504278967621393903e+01
7.454999999999999716e+01,-1.402195985756043706e-01,9.888526855723150932e-02,9.895760173551337857e+00,-1.871037271951651038e-01,3.201667490825447354e-02,1.592708920259313032e+01
7.456000000000000227e+01,3.681850364120082403e-02,7.855125918136335317e-02,9.770451838413267254e+00,-6.317406533865348173e-02,-1.048032930342049779e-01,1.528637285585894645e+01
7.456999999999999318e+01,8.378704176677893856e-02,1.051043801150498003e-01,9.902524965464886364e+00,2.070241265863479452e-01,-2.269104133221061803e-01,1.493313363529731852e+01
7.457999999999999829e+01,1.288880002051845108e-01,7.780574571321105526e-02,9.658902775411323915e+00,5.470958941451135038e-01,-9.875698977323783823e-02,1.559705050824166861e+01
7.459000000000000341e+01,-1.110587358690043325e-01,1.893279027300565631e-01,9.867742249416485478e+00,1.648824756800922331e-01,4.077999230402334224e-02,1.513320231779724701e+01
7.459999999999999432e+01,1.365522980406188303e-01,2.429036984385494757e-01,9.818075252494745442e+00,-2.094497947974522656e-01,2.401404199763623737e-01,1.500258946441168995e+01
7.460999999999999943e+01,-5.661208726445671885e-03,2.460561106774347417e-01,9.963585595056340338e+00,-2.522592637202744625e-01,-2.882875961043138702e-01,1.526872650791508335e+01
7.462000000000000455e+01,2.657196340430637363e-03,7.823326231897113903e-02,9.826124777915909547e+00,-2.494951451384957442e-01,7.438613055471635094e-02,1.499809557160018159e+01
7.462999999999999545e+01,8.935920406314612485e-02,1.068933663927692235e-01,9.902481770838832631e+00,1.124858563288780484e-02,-9.729758353596806159e-03,1.501907761660327623e+01
7.464000000000000057e+01,-5.409539034797328227e-02,1.113474508664950152e-01,9.643157675090968439e+00,9.499567617833619762e-03,-3.991058479518909685e-01,1.536631916178319734e+01
7.465000000000000568e+01,-2.163803001349028643e-01,2.685776821136268699e-01,9.811315733769863101e+00,2.373272404816839654e-02,4.665800700052021854e-01,1.529309294876033398e+01
7.465999999999999659e+01,7.048615481957615225e-02,3.324725249687610074e-02,9.731528152273170917e+00,-2.225168686261832021e-02,-6.802634140750750402e-02,1.457931127627781720e+01
7.467000000000000171e+01,3.485707442950729956e-02,1.663705785813219540e-01,9.774631256131828039e+00,-1.960523116817939893e-01,-1.762851361208231660e-01,1.484706493643195380e+01
7.468000000000000682e+01,-3.602768468769759064e-02,7.917926182007499480e-02,9.800973694642211242e+00,-1.322800174617061453e-01,-2.605167638831160093e-01,1.545292191997829789e+01
7.468999999999999773e+01,6.225313439371939206e-02,1.475163420805409853e-01,9.732204001740926813e+00,-4.243071065163336181e-02,-1.063968773709758064e-01,1.570196656504988653e+01
7.470000000000000284e+01,8.269434604651959564e-02,2.360516333695413804e-01,9.871625692187421919e+00,2.617382904152225076e-01,2.826717429494366579e-02,1.503525169300385400e+01
7.470999999999999375e+01,-1.512006312061576485e-01,1.343536794021703007e-01,9.899942569223785682e+00,-1.488939778109008294e-01,1.140219672967727887e-01,1.466864662289769505e+01
7.471999999999999886e+01,2.251297439772750094e-03,9.133234539942872154e-02,9.712913228138701172e+00,-5.583008305919853753e-02,1.678847640402125405e-02,1.475740664303444483e+01
7.473000000000000398e+01,-2.277562606849084514e-01,2.414306631559375860e-01,9.833549213956697344e+00,3.509386006729791063e-01,9.021019490251028228e-02,1.484054357556966153e+01
7.473999999999999488e+01,-1.236931895117828438e-02,1.796582564375717728e-01,9.623116714296521934e+00,1.007491417305959314e-01,-4.688082866005773841e-01,1.474027089496574838e+01
7.475000000000000000e+01,-3.727422440286892735e-02,2.148953931559340058e-01,9.905514112948353045e+00,-8.533113430589223114e-02,1.196494607527950893e-01,1.471495434262051916e+01
7.476000000000000512e+01,4.919090174272400945e-02,1.931330984135773421e-01,9.817542528298512039e+00,-2.633556785984325077e-01,-1.032953943530345031e-01,1.481697332059970762e+01
7.476999999999999602e+01,-1.073055229623926660e-01,4.518868505995357610e-02,9.800201681881908655e+00,2.599962554432231343e-01,-9.818811480211603326e-02,1.480435271729588820e+01
7.478000000000000114e+01,-4.214865358515187260e-02,2.971826061882482106e-01,9.973895707345906914e+00,3.952655810141445653e-02,1.644148794582314943e-01,1.469982733188280832e+01
7.479000000000000625e+01,-3.216057199257136290e-01,1.467755448504937665e-01,9.841144950971804306e+00,4.608718016439610626e-02,1.197147441775601034e-01,1.502529044653513779e+01
7.479999999999999716e+01,5.575038210338372630e-02,2.509116683342636489e-01,1.008553532410856413e+01,1.603643225265015682e-01,-1.493505036645449424e-01,1.468306658618791793e+01
7.481000000000000227e+01,-8.839991679407365605e-03,1.316546729841210350e-01,9.700835236771581549e+00,1.111242918556902722e-02,1.074178039517236505e-01,1.483636286340650301e+01
7.481999999999999318e+01,8.724143782060971714e-03,2.232399697213337530e-01,9.711365040380595559e+00,-1.080047269400073867e-01,2.509891927326854955e-01,1.526295841541631226e+01
7.482999999999999829e+01,-1.493430736034726258e-01,2.677482609811063785e-01,9.892767062703462955e+00,8.266574206070080588e-02,-1.030244324327885402e-01,1.507145279468814891e+01
7.484000000000000341e+01,3.980621748530049908e-02,2.549108223923280958e-01,9.784105269329881338e+00,-2.572356315536721838e-01,2.085165125976015388e-01,1.513044547036467513e+01
7.484999999999999432e+01,1.652749703514225788e-01,1.772051001135410697e-01,9.923681710821062651e+00,-2.169927659189369029e-01,-3.349977918577460856e-01,1.577682292795806163e+01
7.485999999999999943e+01,-1.849127188761906168e-02,1.327149053327459360e-01,9.709888410684076376e+00,7.014221739396350741e-02,3.692386678982804704e-01,1.491866100415248120e+01
7.487000000000000455e+01,6.500889080816445176e-02,2.583281306654333642e-02,9.930010477447131834e+00,3.695021969395563821e-01,-3.381783443525130523e-02,1.513518976138346517e+01
7.487999999999999545e+01,-8.706210231258848520e-02,4.288712530300771431e-02,9.803500941698993998e+00,1.810157466776651791e-01,-1.687951421073277669e-01,1.505156742732577158e+01
7.489000000000000057e+01,-7.685619004705521867e-03,2.783091502159305564e-01,9.812882708975307011e+00,-1.588203187344707501e-01,1.471834916262107773e-01,1.555926638334496559e+01
7.490000000000000568e+01,-1.531340613958167562e-01,8.428922214087104792e-02,9.685316639007803374e+00,2.273659767114983854e-01,-4.194623977874434827e-03,1.435072656184585327e+01
7.490999999999999659e+01,7.881218046934625188e-02,2.470888529611658946e-01,9.926674778449099179e+00,1.193735349311331462e-01,1.395846214899290894e-01,1.455041675581099270e+01
7.492000000000000171e+01,1.598405771653967425e-02,2.581036482407458865e-01,9.856041675850208961e+00,1.304225614334345584e-01,-1.488316780196369260e-01,1.532139056899187857e+01
7.493000000000000682e+01,-1.219286385826062746e-01,2.121995058625888997e-01,9.868924661074878202e+00,2.836546407054882368e-01,-1.848678374984984718e-01,1.556366363796638908e+01
7.493999999999999773e+01,-8.018621768380816694e-02,2.057890497149710285e-01,9.671585640772494941e+00,-8.524212388107002547e-02,-4.253681397057233055e-02,1.517848696597758895e+01
7.495000000000000284e+01,6.108617259831257418e-03,5.011612163276821241e-02,9.788536515258417836e+00,-9.321666465458117168e-02,-4.668000333305186850e-02,1.554037461632118600e+01
7.495999999999999375e+01,9.238650159641746684e-02,3.172743430755387006e-02,9.805222806363106614e+00,9.269406226539328442e-02,3.874167348060576083e-02,1.433198364151278525e+01
7.496999999999999886e+01,1.479527203518517797e-01,1.007950606502490548e-01,9.678678417763315167e+00,7.478617636913664768e-02,4.055369384721245474e-02,1.431272858289476702e+01
7.498000000000000398e+01,-1.341253790451568152e-02,3.319485156187539365e-01,9.880510151291538534e+00,6.453483258340446393e-02,-3.322598953513290071e-02,1.512852902935209798e+01
7.498999999999999488e+01,-1.364648673869380546e-01,3.041434508573939155e-01,9.903176631930501017e+00,2.938079800785655467e-04,-5.773718704602696095e-01,1.531644869608119386e+01
7.500000000000000000e+01,2.384651403237945944e-02,1.703850024650888084e-01,9.665057652995946214e+00,2.077631748746826545e-01,1.230351135967087811e-01,1.523385851147128633e+01
7.501000000000000512e+01,1.784882399032351463e-01,2.961040934855760920e-01,9.806844068575044204e+00,-1.836389732651571294e-01,-9.494733429896441701e-02,1.530597406569624930e+01
7.501999999999999602e+01,-1.622748405322514964e-01,7.317002899308429342e-02,9.897451062362781826e+00,2.360401542920159135e-01,-1.059989561834435989e-01,1.489153531484453374e+01
7.503000000000000114e+01,-9.545956492889312583e-02,1.297240865240819607e-01,9.982935513489826107e+00,1.625264669988667754e-01,-1.490612433627781265e-02,1.429348556166118200e+01
7.504000000000000625e+01,6.109643442466431568e-02,3.253914095870792944e-01,9.892283681330441780e+00,-2.990317865563584809e-01,-7.110033328980595868e-02,1.542111767997560356e+01
7.504999999999999716e+01,1.535991352541663836e-02,3.768845062166852888e-01,9.709562116716893954e+00,-9.834374059154871173e-02,-3.379905899246878342e-01,1.506055178037431830e+01
7.506000000000000227e+01,-5.450197282648013009e-02,2.438284925432157579e-01,9.718103671820474077e+00,-2.513910610275149615e-01,-9.542447187834451894e-02,1.491127168204890197e+01
7.506999999999999318e+01,2.201138733014523438e-02,7.723911014125561803e-03,9.837650169905160169e+00,-7.707372945410279064e-02,-1.233420723194732088e-01,1.579334558410373290e+01
7.507999999999999829e+01,9.775452018543154264e-02,3.016206016604930928e-01,9.881114281407542776e+00,6.676860910501632163e-02,3.172082336656052437e-01,1.516250400938073994e+01
7.509000000000000341e+01,-9.833634219249900305e-03,1.398847689564451380e-01,9.809761003939602375e+00,-1.406678802357026192e-01,-9.442606094003215891e-03,1.490900832550311783e+01
7.509999999999999432e+01,-1.860076942920963969e-02,2.389241559334271958e-01,9.763804964422819310e+00,1.306751658475178816e-02,1.327980871506194982e-01,1.475028135221929304e+01
7.510999999999999943e+01,5.890241699257166286e-02,1.765779875325990678e-01,9.890337798073602471e+00,-2.228476002506536435e-01,-1.105744396679440023e-01,1.521979422294226048e+01
7.512000000000000455e+01,-2.705148819041963346e-02,2.673211579057447329e-01,9.916007460000129115e+00,2.979302597543371234e-01,9.616580697113327747e-02,1.501970345401968565e+01
7.512999999999999545e+01,1.142523560878130340e-01,1.713378627276520294e-01,9.778861536483807626e+00,1.316505094953532851e-01,1.919112765389231479e-01,1.531727141407715820e+01
7.514000000000000057e+01,2.026739678484351659e-01,4.395596041873508497e-01,9.810080300643104323e+00,-1.325643842689892549e-01,-2.245216903656933050e-01,1.598225999668665054e+01
7.515000000000000568e+01,-8.929419681296620059e-02,2.631805661604713631e-01,9.876350764515551717e+00,1.207598691931500573e-01,1.360351226952142417e-02,1.527816458644786834e+01
7.515999999999999659e+01,-1.250025532784048987e-01,4.086622572269452136e-02,9.771657240192018534e+00,9.901288835861346560e-02,-4.166482210092773975e-01,1.407028298323854010e+01
7.517000000000000171e+01,3.717192386900431550e-02,-1.173319144531670410e-03,9.900583140954516637e+00,-3.942460328812545378e-01,3.306374413007625024e-01,1.443303044815469782e+01
7.518000000000000682e+01,-1.285504523027902468e-01,7.571234553616079666e-05,9.765055735636767764e+00,-2.482007781599566976e-02,1.784661368093699851e-01,1.497107910344311676e+01
7.518999999999999773e+01,-1.302577478953537149e-01,2.261627602262180348e-01,9.909622587157542739e+00,7.947425417126391389e-02,-1.848760734136418726e-01,1.580896357562054888e+01
